Channel			  :,CH1
Frequency			  :,F=  ?
Period 			  :,T=  ?
PK-PK				  :,Vpp=4.480V
Average			  :,V=4.733mV
Vertical pos		  :,0.00mV
Probe attenuation	  :,10X
Voltage per ADC value:,40.00mV
Time interval		  :,0.01uS

index,CH1_Voltage(mV)
0,0.00
1,0.00
2,40.00
3,40.00
4,40.00
5,0.00
6,40.00
7,0.00
8,40.00
9,40.00
10,0.00
11,0.00
12,0.00
13,0.00
14,0.00
15,0.00
16,40.00
17,0.00
18,40.00
19,0.00
20,0.00
21,0.00
22,0.00
23,0.00
24,0.00
25,0.00
26,0.00
27,0.00
28,0.00
29,0.00
30,40.00
31,0.00
32,0.00
33,0.00
34,0.00
35,0.00
36,0.00
37,40.00
38,40.00
39,40.00
40,40.00
41,0.00
42,0.00
43,0.00
44,0.00
45,0.00
46,0.00
47,0.00
48,40.00
49,0.00
50,0.00
51,0.00
52,0.00
53,0.00
54,0.00
55,40.00
56,40.00
57,0.00
58,0.00
59,0.00
60,0.00
61,40.00
62,0.00
63,0.00
64,0.00
65,40.00
66,0.00
67,0.00
68,0.00
69,0.00
70,0.00
71,0.00
72,0.00
73,0.00
74,0.00
75,40.00
76,40.00
77,0.00
78,40.00
79,0.00
80,0.00
81,40.00
82,0.00
83,0.00
84,0.00
85,40.00
86,0.00
87,0.00
88,0.00
89,0.00
90,0.00
91,0.00
92,40.00
93,0.00
94,0.00
95,0.00
96,0.00
97,0.00
98,0.00
99,0.00
100,0.00
101,40.00
102,40.00
103,0.00
104,0.00
105,40.00
106,0.00
107,0.00
108,0.00
109,40.00
110,0.00
111,0.00
112,40.00
113,0.00
114,0.00
115,0.00
116,40.00
117,0.00
118,0.00
119,40.00
120,0.00
121,0.00
122,0.00
123,40.00
124,0.00
125,0.00
126,40.00
127,0.00
128,0.00
129,0.00
130,0.00
131,0.00
132,0.00
133,0.00
134,0.00
135,0.00
136,0.00
137,0.00
138,40.00
139,0.00
140,0.00
141,40.00
142,0.00
143,0.00
144,0.00
145,0.00
146,0.00
147,0.00
148,0.00
149,40.00
150,40.00
151,0.00
152,0.00
153,0.00
154,0.00
155,0.00
156,0.00
157,0.00
158,0.00
159,0.00
160,0.00
161,0.00
162,0.00
163,0.00
164,0.00
165,0.00
166,0.00
167,40.00
168,40.00
169,0.00
170,0.00
171,0.00
172,0.00
173,0.00
174,0.00
175,40.00
176,0.00
177,0.00
178,0.00
179,40.00
180,0.00
181,0.00
182,0.00
183,0.00
184,0.00
185,0.00
186,0.00
187,0.00
188,0.00
189,0.00
190,40.00
191,0.00
192,40.00
193,0.00
194,0.00
195,0.00
196,0.00
197,0.00
198,0.00
199,0.00
200,0.00
201,0.00
202,40.00
203,0.00
204,0.00
205,40.00
206,40.00
207,0.00
208,0.00
209,0.00
210,0.00
211,0.00
212,0.00
213,40.00
214,0.00
215,0.00
216,0.00
217,0.00
218,0.00
219,0.00
220,40.00
221,0.00
222,0.00
223,0.00
224,0.00
225,0.00
226,0.00
227,0.00
228,0.00
229,0.00
230,0.00
231,0.00
232,0.00
233,0.00
234,0.00
235,0.00
236,0.00
237,0.00
238,40.00
239,0.00
240,40.00
241,0.00
242,0.00
243,0.00
244,0.00
245,0.00
246,0.00
247,0.00
248,0.00
249,0.00
250,0.00
251,0.00
252,40.00
253,0.00
254,40.00
255,0.00
256,0.00
257,0.00
258,0.00
259,0.00
260,-480.00
261,-1160.00
262,-1840.00
263,-2200.00
264,-1920.00
265,-1280.00
266,-240.00
267,880.00
268,1680.00
269,2160.00
270,2080.00
271,1800.00
272,1640.00
273,1480.00
274,1400.00
275,1320.00
276,1280.00
277,1080.00
278,600.00
279,-440.00
280,-1320.00
281,-2000.00
282,-2200.00
283,-1880.00
284,-1760.00
285,-1560.00
286,-1440.00
287,-1360.00
288,-1280.00
289,-1160.00
290,-920.00
291,-40.00
292,920.00
293,1760.00
294,2200.00
295,2120.00
296,1800.00
297,1640.00
298,1480.00
299,1440.00
300,1320.00
301,1240.00
302,1120.00
303,600.00
304,-400.00
305,-1320.00
306,-2000.00
307,-2240.00
308,-1920.00
309,-1760.00
310,-1560.00
311,-1440.00
312,-1360.00
313,-1280.00
314,-1160.00
315,-920.00
316,-40.00
317,920.00
318,1760.00
319,2200.00
320,2120.00
321,1800.00
322,1640.00
323,1480.00
324,1440.00
325,1360.00
326,1240.00
327,1120.00
328,560.00
329,-440.00
330,-1360.00
331,-2000.00
332,-2240.00
333,-1920.00
334,-1760.00
335,-1560.00
336,-1440.00
337,-1360.00
338,-1240.00
339,-1120.00
340,-920.00
341,-40.00
342,920.00
343,1760.00
344,2200.00
345,2120.00
346,1800.00
347,1680.00
348,1520.00
349,1440.00
350,1320.00
351,1240.00
352,1120.00
353,560.00
354,-400.00
355,-1320.00
356,-2000.00
357,-2200.00
358,-1920.00
359,-1760.00
360,-1560.00
361,-1440.00
362,-1360.00
363,-1280.00
364,-1160.00
365,-920.00
366,-40.00
367,920.00
368,1760.00
369,2200.00
370,2120.00
371,1800.00
372,1680.00
373,1480.00
374,1440.00
375,1320.00
376,1240.00
377,1080.00
378,560.00
379,-440.00
380,-1320.00
381,-2000.00
382,-2200.00
383,-1920.00
384,-1760.00
385,-1560.00
386,-1440.00
387,-1360.00
388,-1280.00
389,-1120.00
390,-920.00
391,-40.00
392,920.00
393,1760.00
394,2200.00
395,2120.00
396,1800.00
397,1640.00
398,1520.00
399,1440.00
400,1360.00
401,1240.00
402,1080.00
403,560.00
404,-440.00
405,-1360.00
406,-2000.00
407,-2200.00
408,-1920.00
409,-1760.00
410,-1560.00
411,-1440.00
412,-1360.00
413,-1240.00
414,-1160.00
415,-920.00
416,0.00
417,920.00
418,1760.00
419,2200.00
420,2120.00
421,1800.00
422,1640.00
423,1480.00
424,1440.00
425,1360.00
426,1240.00
427,1080.00
428,560.00
429,-400.00
430,-1360.00
431,-2000.00
432,-2200.00
433,-1920.00
434,-1760.00
435,-1560.00
436,-1440.00
437,-1360.00
438,-1280.00
439,-1160.00
440,-920.00
441,0.00
442,920.00
443,1760.00
444,2200.00
445,2120.00
446,1840.00
447,1640.00
448,1480.00
449,1440.00
450,1360.00
451,1240.00
452,1120.00
453,560.00
454,-400.00
455,-1360.00
456,-2000.00
457,-2200.00
458,-1840.00
459,-1760.00
460,-1560.00
461,-1440.00
462,-1360.00
463,-1280.00
464,-1160.00
465,-920.00
466,-40.00
467,920.00
468,1760.00
469,2200.00
470,2120.00
471,1800.00
472,1680.00
473,1520.00
474,1440.00
475,1320.00
476,1240.00
477,1120.00
478,560.00
479,-440.00
480,-1360.00
481,-2000.00
482,-2200.00
483,-1920.00
484,-1760.00
485,-1560.00
486,-1440.00
487,-1360.00
488,-1280.00
489,-1160.00
490,-920.00
491,0.00
492,920.00
493,1760.00
494,2200.00
495,2120.00
496,1800.00
497,1640.00
498,1480.00
499,1440.00
500,1360.00
501,1240.00
502,1080.00
503,560.00
504,-440.00
505,-1360.00
506,-2000.00
507,-2200.00
508,-1880.00
509,-1760.00
510,-1560.00
511,-1440.00
512,-1360.00
513,-1280.00
514,-1120.00
515,-920.00
516,-40.00
517,920.00
518,1760.00
519,2200.00
520,2120.00
521,1800.00
522,1680.00
523,1480.00
524,1440.00
525,1320.00
526,1240.00
527,1120.00
528,560.00
529,-440.00
530,-1320.00
531,-2000.00
532,-2240.00
533,-1920.00
534,-1760.00
535,-1560.00
536,-1440.00
537,-1360.00
538,-1280.00
539,-1160.00
540,-920.00
541,-40.00
542,920.00
543,1760.00
544,2200.00
545,2120.00
546,1800.00
547,1680.00
548,1520.00
549,1440.00
550,1360.00
551,1240.00
552,1080.00
553,560.00
554,-440.00
555,-1360.00
556,-2000.00
557,-2200.00
558,-1920.00
559,-1760.00
560,-1560.00
561,-1440.00
562,-1360.00
563,-1280.00
564,-1120.00
565,-920.00
566,-40.00
567,920.00
568,1760.00
569,2200.00
570,2120.00
571,1800.00
572,1640.00
573,1520.00
574,1440.00
575,1320.00
576,1240.00
577,1080.00
578,560.00
579,-440.00
580,-1360.00
581,-2000.00
582,-2200.00
583,-1840.00
584,-1760.00
585,-1560.00
586,-1440.00
587,-1360.00
588,-1240.00
589,-1160.00
590,-920.00
591,-40.00
592,920.00
593,1760.00
594,2200.00
595,2120.00
596,1840.00
597,1680.00
598,1520.00
599,1440.00
600,1120.00
601,560.00
602,-440.00
603,-1360.00
604,-2000.00
605,-2200.00
606,-1920.00
607,-1760.00
608,-1560.00
609,-1440.00
610,-1360.00
611,-1240.00
612,-1120.00
613,-920.00
614,-40.00
615,920.00
616,1760.00
617,2200.00
618,2120.00
619,1800.00
620,1680.00
621,1520.00
622,1440.00
623,1320.00
624,1240.00
625,1080.00
626,560.00
627,-440.00
628,-1360.00
629,-2000.00
630,-2200.00
631,-1920.00
632,-1760.00
633,-1560.00
634,-1440.00
635,-1360.00
636,-1240.00
637,-1160.00
638,-920.00
639,-40.00
640,920.00
641,1760.00
642,2200.00
643,2120.00
644,1800.00
645,1680.00
646,1520.00
647,1440.00
648,1360.00
649,1240.00
650,1080.00
651,560.00
652,-440.00
653,-1360.00
654,-2000.00
655,-2200.00
656,-1840.00
657,-1760.00
658,-1560.00
659,-1440.00
660,-1360.00
661,-1280.00
662,-1160.00
663,-920.00
664,0.00
665,920.00
666,1760.00
667,2200.00
668,2120.00
669,1800.00
670,1640.00
671,1480.00
672,1440.00
673,1360.00
674,1240.00
675,1080.00
676,560.00
677,-440.00
678,-1320.00
679,-2000.00
680,-2200.00
681,-1840.00
682,-1760.00
683,-1560.00
684,-1440.00
685,-1360.00
686,-1240.00
687,-1160.00
688,-920.00
689,-40.00
690,920.00
691,1760.00
692,2200.00
693,2120.00
694,1800.00
695,1680.00
696,1480.00
697,1440.00
698,1320.00
699,1240.00
700,1120.00
701,600.00
702,-440.00
703,-1360.00
704,-2000.00
705,-2240.00
706,-1920.00
707,-1760.00
708,-1560.00
709,-1440.00
710,-1360.00
711,-1280.00
712,-1160.00
713,-920.00
714,-80.00
715,920.00
716,1760.00
717,2200.00
718,2120.00
719,1840.00
720,1640.00
721,1520.00
722,1440.00
723,1360.00
724,1240.00
725,1160.00
726,560.00
727,-400.00
728,-1320.00
729,-2000.00
730,-2200.00
731,-1920.00
732,-1760.00
733,-1560.00
734,-1440.00
735,-1360.00
736,-1240.00
737,-1160.00
738,-920.00
739,0.00
740,920.00
741,1760.00
742,2200.00
743,2120.00
744,1840.00
745,1640.00
746,1480.00
747,1440.00
748,1360.00
749,1240.00
750,1120.00
751,560.00
752,-440.00
753,-1360.00
754,-2000.00
755,-2200.00
756,-1920.00
757,-1760.00
758,-1560.00
759,-1440.00
760,-1360.00
761,-1280.00
762,-1160.00
763,-920.00
764,-80.00
765,920.00
766,1760.00
767,2200.00
768,2120.00
769,1800.00
770,1640.00
771,1480.00
772,1440.00
773,1360.00
774,1240.00
775,1080.00
776,600.00
777,-400.00
778,-1360.00
779,-2000.00
780,-2200.00
781,-1920.00
782,-1760.00
783,-1560.00
784,-1440.00
785,-1360.00
786,-1240.00
787,-1160.00
788,-920.00
789,-80.00
790,920.00
791,1760.00
792,2200.00
793,2120.00
794,1800.00
795,1640.00
796,1520.00
797,1440.00
798,1320.00
799,1240.00
800,1120.00
801,560.00
802,-400.00
803,-1320.00
804,-2000.00
805,-2200.00
806,-1920.00
807,-1760.00
808,-1560.00
809,-1440.00
810,-1360.00
811,-1280.00
812,-1160.00
813,-920.00
814,-80.00
815,920.00
816,1760.00
817,2200.00
818,2120.00
819,1800.00
820,1680.00
821,1480.00
822,1440.00
823,1360.00
824,1240.00
825,1120.00
826,560.00
827,-400.00
828,-1320.00
829,-2000.00
830,-2200.00
831,-1920.00
832,-1760.00
833,-1560.00
834,-1440.00
835,-1360.00
836,-1280.00
837,-1160.00
838,-920.00
839,-40.00
840,920.00
841,1760.00
842,2200.00
843,2120.00
844,1800.00
845,1640.00
846,1520.00
847,1440.00
848,1320.00
849,1240.00
850,1120.00
851,600.00
852,-400.00
853,-1320.00
854,-2000.00
855,-2240.00
856,-1840.00
857,-1760.00
858,-1560.00
859,-1440.00
860,-1360.00
861,-1280.00
862,-1160.00
863,-920.00
864,-80.00
865,920.00
866,1760.00
867,2200.00
868,2120.00
869,1800.00
870,1640.00
871,1520.00
872,1440.00
873,1320.00
874,1240.00
875,1080.00
876,600.00
877,-400.00
878,-1320.00
879,-2000.00
880,-2200.00
881,-1920.00
882,-1760.00
883,-1560.00
884,-1440.00
885,-1360.00
886,-1280.00
887,-1160.00
888,-920.00
889,-80.00
890,920.00
891,1760.00
892,2200.00
893,2120.00
894,1800.00
895,1680.00
896,1520.00
897,1440.00
898,1360.00
899,1240.00
900,1080.00
901,600.00
902,-400.00
903,-1320.00
904,-2000.00
905,-2200.00
906,-1920.00
907,-1760.00
908,-1560.00
909,-1440.00
910,-1360.00
911,-1280.00
912,-1160.00
913,-920.00
914,-40.00
915,920.00
916,1760.00
917,2200.00
918,2120.00
919,1800.00
920,1640.00
921,1480.00
922,1440.00
923,1360.00
924,1240.00
925,1080.00
926,560.00
927,-400.00
928,-1320.00
929,-2000.00
930,-2240.00
931,-1960.00
932,-1760.00
933,-1560.00
934,-1440.00
935,-1360.00
936,-1280.00
937,-1120.00
938,-920.00
939,-80.00
940,920.00
941,1760.00
942,2200.00
943,2120.00
944,1800.00
945,1680.00
946,1480.00
947,1440.00
948,1360.00
949,1240.00
950,1080.00
951,560.00
952,-400.00
953,-1320.00
954,-2000.00
955,-2200.00
956,-1960.00
957,-1800.00
958,-1560.00
959,-1440.00
960,-1360.00
961,-1280.00
962,-1160.00
963,-920.00
964,-80.00
965,920.00
966,1760.00
967,2200.00
968,2120.00
969,1800.00
970,1680.00
971,1520.00
972,1440.00
973,1320.00
974,1240.00
975,1120.00
976,600.00
977,-400.00
978,-1360.00
979,-2000.00
980,-2240.00
981,-1920.00
982,-1760.00
983,-1560.00
984,-1440.00
985,-1360.00
986,-1280.00
987,-1160.00
988,-920.00
989,-80.00
990,920.00
991,1760.00
992,2200.00
993,2120.00
994,1800.00
995,1640.00
996,1520.00
997,1440.00
998,1360.00
999,1240.00
1000,1080.00
1001,560.00
1002,-440.00
1003,-1360.00
1004,-2000.00
1005,-2200.00
1006,-1920.00
1007,-1760.00
1008,-1560.00
1009,-1440.00
1010,-1360.00
1011,-1280.00
1012,-1160.00
1013,-920.00
1014,-80.00
1015,880.00
1016,1760.00
1017,2200.00
1018,2120.00
1019,1800.00
1020,1640.00
1021,1520.00
1022,1440.00
1023,1320.00
1024,1240.00
1025,1080.00
1026,560.00
1027,-440.00
1028,-1360.00
1029,-2000.00
1030,-2200.00
1031,-1920.00
1032,-1760.00
1033,-1560.00
1034,-1440.00
1035,-1360.00
1036,-1280.00
1037,-1160.00
1038,-920.00
1039,-40.00
1040,920.00
1041,1760.00
1042,2200.00
1043,2120.00
1044,1440.00
1045,560.00
1046,-560.00
1047,-1440.00
1048,-2040.00
1049,-2080.00
1050,-1600.00
1051,-840.00
1052,360.00
1053,1280.00
1054,1960.00
1055,2120.00
1056,1760.00
1057,1080.00
1058,-40.00
1059,-1000.00
1060,-1800.00
1061,-2160.00
1062,-1880.00
1063,-1280.00
1064,-200.00
1065,800.00
1066,1680.00
1067,2120.00
1068,2040.00
1069,1480.00
1070,520.00
1071,-560.00
1072,-1440.00
1073,-2040.00
1074,-2120.00
1075,-1600.00
1076,-840.00
1077,360.00
1078,1320.00
1079,1960.00
1080,2200.00
1081,1760.00
1082,1080.00
1083,-40.00
1084,-1000.00
1085,-1800.00
1086,-2160.00
1087,-1920.00
1088,-1280.00
1089,-160.00
1090,840.00
1091,1680.00
1092,2120.00
1093,2080.00
1094,1480.00
1095,480.00
1096,-560.00
1097,-1440.00
1098,-2080.00
1099,-2120.00
1100,-1600.00
1101,-840.00
1102,360.00
1103,1320.00
1104,1920.00
1105,2200.00
1106,1760.00
1107,1040.00
1108,-80.00
1109,-1000.00
1110,-1800.00
1111,-2160.00
1112,-1840.00
1113,-1280.00
1114,-200.00
1115,880.00
1116,1680.00
1117,2160.00
1118,2080.00
1119,1440.00
1120,560.00
1121,-600.00
1122,-1440.00
1123,-2040.00
1124,-2120.00
1125,-1600.00
1126,-840.00
1127,320.00
1128,1320.00
1129,1960.00
1130,2200.00
1131,1760.00
1132,1040.00
1133,-40.00
1134,-1000.00
1135,-1800.00
1136,-2160.00
1137,-1880.00
1138,-1280.00
1139,-160.00
1140,880.00
1141,1640.00
1142,2120.00
1143,2040.00
1144,1480.00
1145,520.00
1146,-560.00
1147,-1440.00
1148,-2040.00
1149,-2080.00
1150,-1600.00
1151,-840.00
1152,320.00
1153,1320.00
1154,1960.00
1155,2120.00
1156,1760.00
1157,1080.00
1158,-40.00
1159,-1000.00
1160,-1800.00
1161,-2160.00
1162,-1920.00
1163,-1280.00
1164,-200.00
1165,840.00
1166,1680.00
1167,2120.00
1168,2080.00
1169,1480.00
1170,560.00
1171,-560.00
1172,-1440.00
1173,-2040.00
1174,-2080.00
1175,-1600.00
1176,-840.00
1177,320.00
1178,1320.00
1179,1960.00
1180,2120.00
1181,1760.00
1182,1080.00
1183,-80.00
1184,-1000.00
1185,-1800.00
1186,-2160.00
1187,-1920.00
1188,-1280.00
1189,-240.00
1190,880.00
1191,1640.00
1192,2120.00
1193,2040.00
1194,1480.00
1195,480.00
1196,-600.00
1197,-1440.00
1198,-2040.00
1199,-2080.00
1200,320.00
1201,1320.00
1202,1960.00
1203,2120.00
1204,1760.00
1205,1040.00
1206,-80.00
1207,-1040.00
1208,-1800.00
1209,-2160.00
1210,-1920.00
1211,-1280.00
1212,-200.00
1213,840.00
1214,1640.00
1215,2120.00
1216,2040.00
1217,1440.00
1218,520.00
1219,-600.00
1220,-1440.00
1221,-2040.00
1222,-2120.00
1223,-1600.00
1224,-840.00
1225,320.00
1226,1320.00
1227,1960.00
1228,2200.00
1229,1760.00
1230,1080.00
1231,-80.00
1232,-1040.00
1233,-1800.00
1234,-2160.00
1235,-1920.00
1236,-1280.00
1237,-200.00
1238,880.00
1239,1640.00
1240,2120.00
1241,2040.00
1242,1440.00
1243,480.00
1244,-600.00
1245,-1440.00
1246,-2040.00
1247,-2080.00
1248,-1600.00
1249,-840.00
1250,320.00
1251,1320.00
1252,1960.00
1253,2120.00
1254,1760.00
1255,1080.00
1256,-80.00
1257,-1040.00
1258,-1800.00
1259,-2160.00
1260,-1920.00
1261,-1280.00
1262,-200.00
1263,800.00
1264,1640.00
1265,2120.00
1266,2080.00
1267,1440.00
1268,520.00
1269,-560.00
1270,-1440.00
1271,-2080.00
1272,-2080.00
1273,-1600.00
1274,-840.00
1275,320.00
1276,1320.00
1277,1960.00
1278,2160.00
1279,1760.00
1280,1040.00
1281,-80.00
1282,-1000.00
1283,-1800.00
1284,-2160.00
1285,-1920.00
1286,-1280.00
1287,-200.00
1288,880.00
1289,1640.00
1290,2120.00
1291,2040.00
1292,1440.00
1293,560.00
1294,-560.00
1295,-1440.00
1296,-2040.00
1297,-2120.00
1298,-1600.00
1299,-840.00
1300,320.00
1301,1320.00
1302,1960.00
1303,2200.00
1304,1760.00
1305,1040.00
1306,-80.00
1307,-1040.00
1308,-1800.00
1309,-2160.00
1310,-1920.00
1311,-1280.00
1312,-200.00
1313,880.00
1314,1640.00
1315,2120.00
1316,2040.00
1317,1440.00
1318,520.00
1319,-600.00
1320,-1440.00
1321,-2040.00
1322,-2160.00
1323,-1600.00
1324,-840.00
1325,320.00
1326,1320.00
1327,1960.00
1328,2160.00
1329,1760.00
1330,1040.00
1331,-80.00
1332,-1040.00
1333,-1800.00
1334,-2160.00
1335,-1960.00
1336,-1280.00
1337,-200.00
1338,880.00
1339,1640.00
1340,2120.00
1341,2040.00
1342,1480.00
1343,520.00
1344,-600.00
1345,-1440.00
1346,-2080.00
1347,-2160.00
1348,-1600.00
1349,-840.00
1350,320.00
1351,1320.00
1352,1960.00
1353,2160.00
1354,1760.00
1355,1040.00
1356,-80.00
1357,-1040.00
1358,-1800.00
1359,-2160.00
1360,-1920.00
1361,-1280.00
1362,-240.00
1363,840.00
1364,1640.00
1365,2120.00
1366,2040.00
1367,1480.00
1368,480.00
1369,-560.00
1370,-1440.00
1371,-2040.00
1372,-2120.00
1373,-1600.00
1374,-880.00
1375,360.00
1376,1320.00
1377,1960.00
1378,2200.00
1379,1760.00
1380,1080.00
1381,-80.00
1382,-1040.00
1383,-1800.00
1384,-2160.00
1385,-1920.00
1386,-1280.00
1387,-200.00
1388,800.00
1389,1680.00
1390,2120.00
1391,2080.00
1392,1480.00
1393,480.00
1394,-560.00
1395,-1440.00
1396,-2080.00
1397,-2120.00
1398,-1600.00
1399,-880.00
1400,320.00
1401,1320.00
1402,1920.00
1403,2200.00
1404,1760.00
1405,1080.00
1406,-80.00
1407,-1000.00
1408,-1800.00
1409,-2160.00
1410,-1880.00
1411,-1280.00
1412,-240.00
1413,880.00
1414,1640.00
1415,2120.00
1416,2040.00
1417,1480.00
1418,520.00
1419,-600.00
1420,-1440.00
1421,-2040.00
1422,-2120.00
1423,-1600.00
1424,-840.00
1425,320.00
1426,1320.00
1427,1960.00
1428,2160.00
1429,1760.00
1430,1040.00
1431,-80.00
1432,-1040.00
1433,-1800.00
1434,-2160.00
1435,-1920.00
1436,-1280.00
1437,-240.00
1438,880.00
1439,1680.00
1440,2120.00
1441,2040.00
1442,1480.00
1443,480.00
1444,-600.00
1445,-1440.00
1446,-2040.00
1447,-2160.00
1448,-1600.00
1449,-840.00
1450,320.00
1451,1320.00
1452,1960.00
1453,2200.00
1454,1760.00
1455,1080.00
1456,-40.00
1457,-1000.00
1458,-1800.00
1459,-2160.00
1460,-1920.00
1461,-1280.00
1462,-200.00
1463,840.00
1464,1680.00
1465,2160.00
1466,2040.00
1467,1480.00
1468,520.00
1469,-560.00
1470,-1440.00
1471,-2040.00
1472,-2160.00
1473,-1600.00
1474,-840.00
1475,360.00
1476,1320.00
1477,1960.00
1478,2200.00
1479,1760.00
1480,1040.00
1481,-80.00
1482,-1000.00
1483,-1800.00
1484,-2160.00
1485,-1920.00
1486,-1280.00
1487,-200.00
1488,880.00
1489,1640.00
1490,2120.00
1491,2040.00
1492,1440.00
1493,480.00
1494,-600.00
1495,-1440.00
1496,-2040.00
1497,-2080.00
1498,-1600.00
1499,-840.00
1500,320.00
1501,1320.00
1502,1960.00
1503,2120.00
1504,1760.00
1505,1040.00
1506,-80.00
1507,-1040.00
1508,-1800.00
1509,-2160.00
1510,-1840.00
1511,-1280.00
1512,-160.00
1513,880.00
1514,1640.00
1515,2120.00
1516,2080.00
1517,1480.00
1518,520.00
1519,-600.00
1520,-1440.00
1521,-2040.00
1522,-2120.00
1523,-1600.00
1524,-840.00
1525,320.00
1526,1320.00
1527,1960.00
1528,2200.00
1529,1760.00
1530,1080.00
1531,-80.00
1532,-1040.00
1533,-1800.00
1534,-2160.00
1535,-1920.00
1536,-1280.00
1537,-200.00
1538,880.00
1539,1640.00
1540,2120.00
1541,2040.00
1542,1440.00
1543,520.00
1544,-560.00
1545,-1440.00
1546,-2040.00
1547,-2080.00
1548,-1600.00
1549,-840.00
1550,360.00
1551,1320.00
1552,1960.00
1553,2120.00
1554,1760.00
1555,1080.00
1556,-80.00
1557,-1040.00
1558,-1800.00
1559,-2160.00
1560,-1920.00
1561,-1280.00
1562,-240.00
1563,880.00
1564,1640.00
1565,2160.00
1566,2040.00
1567,1440.00
1568,520.00
1569,-600.00
1570,-1440.00
1571,-2040.00
1572,-2120.00
1573,-1600.00
1574,-840.00
1575,320.00
1576,1320.00
1577,1960.00
1578,2160.00
1579,1760.00
1580,1040.00
1581,-80.00
1582,-1000.00
1583,-1800.00
1584,-2160.00
1585,-1920.00
1586,-1280.00
1587,-240.00
1588,840.00
1589,1640.00
1590,2120.00
1591,2080.00
1592,1480.00
1593,480.00
1594,-560.00
1595,-1440.00
1596,-2080.00
1597,-2160.00
1598,-1600.00
1599,-880.00
1600,320.00
1601,1280.00
1602,1960.00
1603,2120.00
1604,1760.00
1605,1080.00
1606,-40.00
1607,-1040.00
1608,-1800.00
1609,-2160.00
1610,-1920.00
1611,-1320.00
1612,-240.00
1613,880.00
1614,1640.00
1615,2120.00
1616,2040.00
1617,1480.00
1618,520.00
1619,-600.00
1620,-1440.00
1621,-2040.00
1622,-2120.00
1623,-1600.00
1624,-840.00
1625,320.00
1626,1320.00
1627,1960.00
1628,2200.00
1629,1760.00
1630,1080.00
1631,-80.00
1632,-1040.00
1633,-1800.00
1634,-2160.00
1635,-1960.00
1636,-1280.00
1637,-240.00
1638,800.00
1639,1680.00
1640,2120.00
1641,2080.00
1642,1480.00
1643,480.00
1644,-600.00
1645,-1440.00
1646,-2040.00
1647,-2120.00
1648,-1600.00
1649,-880.00
1650,320.00
1651,1320.00
1652,1920.00
1653,2200.00
1654,1880.00
1655,1760.00
1656,1520.00
1657,1440.00
1658,1360.00
1659,1280.00
1660,1200.00
1661,920.00
1662,40.00
1663,-920.00
1664,-1720.00
1665,-2160.00
1666,-2120.00
1667,-1480.00
1668,-520.00
1669,600.00
1670,1440.00
1671,2080.00
1672,2120.00
1673,1640.00
1674,800.00
1675,-320.00
1676,-1280.00
1677,-1920.00
1678,-2200.00
1679,-1880.00
1680,-1720.00
1681,-1560.00
1682,-1440.00
1683,-1360.00
1684,-1280.00
1685,-1160.00
1686,-920.00
1687,-80.00
1688,920.00
1689,1760.00
1690,2200.00
1691,2080.00
1692,1800.00
1693,1640.00
1694,1520.00
1695,1440.00
1696,1320.00
1697,1240.00
1698,1080.00
1699,560.00
1700,-440.00
1701,-1360.00
1702,-2000.00
1703,-2200.00
1704,-1920.00
1705,-1760.00
1706,-1560.00
1707,-1440.00
1708,-1360.00
1709,-1280.00
1710,-1160.00
1711,-920.00
1712,-80.00
1713,920.00
1714,1760.00
1715,2200.00
1716,2120.00
1717,1480.00
1718,560.00
1719,-560.00
1720,-1440.00
1721,-2040.00
1722,-2120.00
1723,-1600.00
1724,-880.00
1725,320.00
1726,1280.00
1727,1960.00
1728,2200.00
1729,1760.00
1730,1080.00
1731,-40.00
1732,-1000.00
1733,-1800.00
1734,-2160.00
1735,-1920.00
1736,-1280.00
1737,-240.00
1738,880.00
1739,1640.00
1740,2160.00
1741,2080.00
1742,1840.00
1743,1600.00
1744,1480.00
1745,1400.00
1746,1320.00
1747,1280.00
1748,1120.00
1749,560.00
1750,-440.00
1751,-1320.00
1752,-2000.00
1753,-2240.00
1754,-1960.00
1755,-1760.00
1756,-1560.00
1757,-1440.00
1758,-1360.00
1759,-1280.00
1760,-1160.00
1761,-920.00
1762,-80.00
1763,880.00
1764,1760.00
1765,2200.00
1766,2120.00
1767,1800.00
1768,1640.00
1769,1520.00
1770,1440.00
1771,1320.00
1772,1240.00
1773,1080.00
1774,560.00
1775,-440.00
1776,-1320.00
1777,-2000.00
1778,-2240.00
1779,-1840.00
1780,-1800.00
1781,-1560.00
1782,-1440.00
1783,-1360.00
1784,-1280.00
1785,-1160.00
1786,-960.00
1787,-80.00
1788,880.00
1789,1760.00
1790,2200.00
1791,2080.00
1792,1800.00
1793,1600.00
1794,1480.00
1795,1440.00
1796,1320.00
1797,1200.00
1798,1080.00
1799,560.00
1800,-2000.00
1801,-2240.00
1802,-1960.00
1803,-1800.00
1804,-1560.00
1805,-1440.00
1806,-1360.00
1807,-1280.00
1808,-1160.00
1809,-960.00
1810,-80.00
1811,880.00
1812,1760.00
1813,2200.00
1814,2080.00
1815,1480.00
1816,560.00
1817,-560.00
1818,-1440.00
1819,-2040.00
1820,-2120.00
1821,-1600.00
1822,-840.00
1823,360.00
1824,1320.00
1825,1960.00
1826,2200.00
1827,1760.00
1828,1040.00
1829,-40.00
1830,-1000.00
1831,-1800.00
1832,-2160.00
1833,-1960.00
1834,-1280.00
1835,-200.00
1836,800.00
1837,1640.00
1838,2120.00
1839,2080.00
1840,1800.00
1841,1640.00
1842,1480.00
1843,1440.00
1844,1320.00
1845,1240.00
1846,1080.00
1847,560.00
1848,-440.00
1849,-1360.00
1850,-2000.00
1851,-2240.00
1852,-1800.00
1853,-1120.00
1854,40.00
1855,1080.00
1856,1800.00
1857,2200.00
1858,1920.00
1859,1320.00
1860,200.00
1861,-840.00
1862,-1640.00
1863,-2160.00
1864,-2040.00
1865,-1440.00
1866,-560.00
1867,560.00
1868,1440.00
1869,2040.00
1870,2120.00
1871,1640.00
1872,800.00
1873,-320.00
1874,-1280.00
1875,-1960.00
1876,-2200.00
1877,-1800.00
1878,-1080.00
1879,40.00
1880,1080.00
1881,1800.00
1882,2160.00
1883,1920.00
1884,1320.00
1885,200.00
1886,-840.00
1887,-1640.00
1888,-2160.00
1889,-2040.00
1890,-1800.00
1891,-1640.00
1892,-1480.00
1893,-1400.00
1894,-1320.00
1895,-1200.00
1896,-1120.00
1897,-520.00
1898,440.00
1899,1360.00
1900,2040.00
1901,2200.00
1902,1920.00
1903,1680.00
1904,1520.00
1905,1440.00
1906,1360.00
1907,1280.00
1908,1200.00
1909,920.00
1910,40.00
1911,-920.00
1912,-1720.00
1913,-2160.00
1914,-2120.00
1915,-1480.00
1916,-520.00
1917,600.00
1918,1440.00
1919,2080.00
1920,2120.00
1921,1640.00
1922,800.00
1923,-320.00
1924,-1280.00
1925,-1960.00
1926,-2200.00
1927,-1920.00
1928,-1760.00
1929,-1560.00
1930,-1440.00
1931,-1360.00
1932,-1280.00
1933,-1160.00
1934,-920.00
1935,-80.00
1936,920.00
1937,1760.00
1938,2200.00
1939,2080.00
1940,1800.00
1941,1640.00
1942,1480.00
1943,1440.00
1944,1320.00
1945,1240.00
1946,1080.00
1947,560.00
1948,-440.00
1949,-1360.00
1950,-2000.00
1951,-2200.00
1952,-1960.00
1953,-1760.00
1954,-1560.00
1955,-1440.00
1956,-1360.00
1957,-1280.00
1958,-1160.00
1959,-920.00
1960,-80.00
1961,920.00
1962,1760.00
1963,2200.00
1964,2120.00
1965,1440.00
1966,560.00
1967,-560.00
1968,-1440.00
1969,-2080.00
1970,-2120.00
1971,-1600.00
1972,-880.00
1973,320.00
1974,1320.00
1975,1920.00
1976,2160.00
1977,1880.00
1978,1760.00
1979,1520.00
1980,1440.00
1981,1360.00
1982,1240.00
1983,1200.00
1984,920.00
1985,40.00
1986,-920.00
1987,-1720.00
1988,-2160.00
1989,-2160.00
1990,-1840.00
1991,-1640.00
1992,-1520.00
1993,-1440.00
1994,-1320.00
1995,-1200.00
1996,-1080.00
1997,-520.00
1998,480.00
1999,1360.00
2000,2040.00
2001,2200.00
2002,1920.00
2003,1760.00
2004,1560.00
2005,1440.00
2006,1360.00
2007,1280.00
2008,1200.00
2009,880.00
2010,40.00
2011,-920.00
2012,-1720.00
2013,-2160.00
2014,-2080.00
2015,-1480.00
2016,-520.00
2017,560.00
2018,1480.00
2019,2040.00
2020,2120.00
2021,1640.00
2022,800.00
2023,-360.00
2024,-1280.00
2025,-1960.00
2026,-2200.00
2027,-1840.00
2028,-1760.00
2029,-1560.00
2030,-1440.00
2031,-1360.00
2032,-1280.00
2033,-1160.00
2034,-920.00
2035,-80.00
2036,920.00
2037,1760.00
2038,2200.00
2039,2080.00
2040,1480.00
2041,520.00
2042,-560.00
2043,-1440.00
2044,-2080.00
2045,-2080.00
2046,-1600.00
2047,-880.00
2048,320.00
2049,1320.00
2050,1960.00
2051,2120.00
2052,1760.00
2053,1040.00
2054,-80.00
2055,-1000.00
2056,-1800.00
2057,-2160.00
2058,-1880.00
2059,-1280.00
2060,-200.00
2061,880.00
2062,1640.00
2063,2120.00
2064,2080.00
2065,1480.00
2066,480.00
2067,-600.00
2068,-1440.00
2069,-2040.00
2070,-2080.00
2071,-1600.00
2072,-840.00
2073,320.00
2074,1320.00
2075,1960.00
2076,2120.00
2077,1760.00
2078,1040.00
2079,-80.00
2080,-1000.00
2081,-1800.00
2082,-2160.00
2083,-1920.00
2084,-1280.00
2085,-200.00
2086,880.00
2087,1640.00
2088,2160.00
2089,2040.00
2090,1480.00
2091,520.00
2092,-600.00
2093,-1440.00
2094,-2040.00
2095,-2120.00
2096,-1600.00
2097,-840.00
2098,320.00
2099,1320.00
2100,1960.00
2101,2160.00
2102,1760.00
2103,1040.00
2104,-80.00
2105,-1040.00
2106,-1800.00
2107,-2160.00
2108,-1920.00
2109,-1280.00
2110,-200.00
2111,880.00
2112,1640.00
2113,2120.00
2114,2080.00
2115,1480.00
2116,480.00
2117,-600.00
2118,-1440.00
2119,-2040.00
2120,-2120.00
2121,-1600.00
2122,-840.00
2123,320.00
2124,1320.00
2125,1960.00
2126,2200.00
2127,1880.00
2128,1680.00
2129,1520.00
2130,1440.00
2131,1360.00
2132,1320.00
2133,1200.00
2134,920.00
2135,40.00
2136,-920.00
2137,-1720.00
2138,-2160.00
2139,-2080.00
2140,-1800.00
2141,-1600.00
2142,-1480.00
2143,-1400.00
2144,-1320.00
2145,-1200.00
2146,-1080.00
2147,-520.00
2148,480.00
2149,1360.00
2150,2040.00
2151,2200.00
2152,1920.00
2153,1760.00
2154,1520.00
2155,1440.00
2156,1360.00
2157,1280.00
2158,1200.00
2159,880.00
2160,40.00
2161,-920.00
2162,-1720.00
2163,-2160.00
2164,-2080.00
2165,-1800.00
2166,-1640.00
2167,-1520.00
2168,-1400.00
2169,-1320.00
2170,-1200.00
2171,-1040.00
2172,-520.00
2173,480.00
2174,1360.00
2175,2040.00
2176,2200.00
2177,1760.00
2178,1040.00
2179,-40.00
2180,-1000.00
2181,-1800.00
2182,-2160.00
2183,-1920.00
2184,-1280.00
2185,-200.00
2186,840.00
2187,1680.00
2188,2120.00
2189,2040.00
2190,1440.00
2191,480.00
2192,-560.00
2193,-1440.00
2194,-2080.00
2195,-2120.00
2196,-1600.00
2197,-880.00
2198,320.00
2199,1320.00
2200,1960.00
2201,2200.00
2202,1760.00
2203,1080.00
2204,-80.00
2205,-1000.00
2206,-1800.00
2207,-2160.00
2208,-1920.00
2209,-1280.00
2210,-200.00
2211,880.00
2212,1640.00
2213,2120.00
2214,2040.00
2215,1800.00
2216,1640.00
2217,1480.00
2218,1400.00
2219,1320.00
2220,1240.00
2221,1080.00
2222,560.00
2223,-440.00
2224,-1360.00
2225,-2000.00
2226,-2200.00
2227,-1920.00
2228,-1760.00
2229,-1560.00
2230,-1440.00
2231,-1360.00
2232,-1280.00
2233,-1160.00
2234,-920.00
2235,-40.00
2236,920.00
2237,1760.00
2238,2200.00
2239,2120.00
2240,1800.00
2241,1640.00
2242,1480.00
2243,1400.00
2244,1320.00
2245,1240.00
2246,1080.00
2247,560.00
2248,-440.00
2249,-1360.00
2250,-2000.00
2251,-2200.00
2252,-1800.00
2253,-1080.00
2254,40.00
2255,1080.00
2256,1800.00
2257,2200.00
2258,1920.00
2259,1280.00
2260,200.00
2261,-840.00
2262,-1640.00
2263,-2160.00
2264,-2040.00
2265,-1440.00
2266,-520.00
2267,600.00
2268,1480.00
2269,2080.00
2270,2120.00
2271,1640.00
2272,800.00
2273,-320.00
2274,-1280.00
2275,-1960.00
2276,-2200.00
2277,-1800.00
2278,-1040.00
2279,40.00
2280,1080.00
2281,1800.00
2282,2200.00
2283,1920.00
2284,1240.00
2285,200.00
2286,-840.00
2287,-1640.00
2288,-2160.00
2289,-2040.00
2290,-1800.00
2291,-1680.00
2292,-1480.00
2293,-1400.00
2294,-1320.00
2295,-1240.00
2296,-1120.00
2297,-520.00
2298,480.00
2299,1320.00
2300,2040.00
2301,2240.00
2302,1920.00
2303,1760.00
2304,1520.00
2305,1440.00
2306,1360.00
2307,1240.00
2308,1200.00
2309,880.00
2310,40.00
2311,-920.00
2312,-1720.00
2313,-2160.00
2314,-2080.00
2315,-1480.00
2316,-520.00
2317,600.00
2318,1440.00
2319,2040.00
2320,2120.00
2321,1640.00
2322,800.00
2323,-360.00
2324,-1280.00
2325,-1960.00
2326,-2200.00
2327,-1800.00
2328,-1080.00
2329,40.00
2330,1080.00
2331,1800.00
2332,2200.00
2333,1920.00
2334,1280.00
2335,200.00
2336,-840.00
2337,-1640.00
2338,-2160.00
2339,-2040.00
2340,-1440.00
2341,-520.00
2342,560.00
2343,1440.00
2344,2040.00
2345,2120.00
2346,1640.00
2347,800.00
2348,-320.00
2349,-1280.00
2350,-2000.00
2351,-2160.00
2352,-1760.00
2353,-1040.00
2354,40.00
2355,1080.00
2356,1800.00
2357,2160.00
2358,1920.00
2359,1320.00
2360,200.00
2361,-840.00
2362,-1640.00
2363,-2160.00
2364,-2040.00
2365,-1800.00
2366,-1640.00
2367,-1480.00
2368,-1400.00
2369,-1320.00
2370,-1200.00
2371,-1120.00
2372,-520.00
2373,480.00
2374,1320.00
2375,2040.00
2376,2200.00
2377,1800.00
2378,1080.00
2379,-40.00
2380,-1000.00
2381,-1800.00
2382,-2160.00
2383,-1920.00
2384,-1280.00
2385,-200.00
2386,800.00
2387,1680.00
2388,2120.00
2389,2040.00
2390,1800.00
2391,1600.00
2392,1480.00
2393,1440.00
2394,1320.00
2395,1240.00
2396,1080.00
2397,560.00
2398,-400.00
2399,-1360.00
2400,-1800.00
2401,-1120.00
2402,40.00
2403,1040.00
2404,1800.00
2405,2200.00
2406,1960.00
2407,1320.00
2408,200.00
2409,-880.00
2410,-1640.00
2411,-2160.00
2412,-2040.00
2413,-1440.00
2414,-560.00
2415,600.00
2416,1440.00
2417,2080.00
2418,2120.00
2419,1680.00
2420,800.00
2421,-320.00
2422,-1280.00
2423,-1960.00
2424,-2160.00
2425,-1760.00
2426,-1040.00
2427,40.00
2428,1080.00
2429,1800.00
2430,2200.00
2431,1920.00
2432,1280.00
2433,200.00
2434,-840.00
2435,-1640.00
2436,-2160.00
2437,-2040.00
2438,-1440.00
2439,-560.00
2440,560.00
2441,1440.00
2442,2040.00
2443,2120.00
2444,1680.00
2445,800.00
2446,-320.00
2447,-1280.00
2448,-2000.00
2449,-2160.00
2450,-1800.00
2451,-1040.00
2452,40.00
2453,1080.00
2454,1800.00
2455,2200.00
2456,1920.00
2457,1280.00
2458,200.00
2459,-840.00
2460,-1600.00
2461,-2160.00
2462,-2040.00
2463,-1440.00
2464,-560.00
2465,600.00
2466,1440.00
2467,2040.00
2468,2120.00
2469,1640.00
2470,800.00
2471,-320.00
2472,-1280.00
2473,-1960.00
2474,-2160.00
2475,-1800.00
2476,-1040.00
2477,40.00
2478,1080.00
2479,1800.00
2480,2200.00
2481,1960.00
2482,1280.00
2483,200.00
2484,-840.00
2485,-1600.00
2486,-2160.00
2487,-2040.00
2488,-1440.00
2489,-560.00
2490,560.00
2491,1440.00
2492,2040.00
2493,2120.00
2494,1640.00
2495,800.00
2496,-320.00
2497,-1280.00
2498,-1960.00
2499,-2160.00
2500,-1800.00
2501,-1080.00
2502,40.00
2503,1080.00
2504,1800.00
2505,2160.00
2506,1920.00
2507,1320.00
2508,200.00
2509,-840.00
2510,-1600.00
2511,-2160.00
2512,-2040.00
2513,-1440.00
2514,-560.00
2515,560.00
2516,1440.00
2517,2040.00
2518,2120.00
2519,1680.00
2520,800.00
2521,-320.00
2522,-1280.00
2523,-1880.00
2524,-2200.00
2525,-1800.00
2526,-1040.00
2527,40.00
2528,1080.00
2529,1800.00
2530,2200.00
2531,1920.00
2532,1320.00
2533,200.00
2534,-840.00
2535,-1640.00
2536,-2160.00
2537,-2040.00
2538,-1440.00
2539,-560.00
2540,560.00
2541,1440.00
2542,2040.00
2543,2120.00
2544,1640.00
2545,800.00
2546,-320.00
2547,-1280.00
2548,-1960.00
2549,-2200.00
2550,-1920.00
2551,-1760.00
2552,-1560.00
2553,-1440.00
2554,-1360.00
2555,-1280.00
2556,-1160.00
2557,-960.00
2558,-80.00
2559,880.00
2560,1760.00
2561,2200.00
2562,2080.00
2563,1800.00
2564,1640.00
2565,1520.00
2566,1440.00
2567,1320.00
2568,1240.00
2569,1080.00
2570,560.00
2571,-440.00
2572,-1360.00
2573,-2000.00
2574,-2200.00
2575,-1800.00
2576,-1120.00
2577,40.00
2578,1040.00
2579,1800.00
2580,2200.00
2581,1960.00
2582,1320.00
2583,200.00
2584,-840.00
2585,-1640.00
2586,-2120.00
2587,-2040.00
2588,-1440.00
2589,-560.00
2590,560.00
2591,1440.00
2592,2080.00
2593,2120.00
2594,1640.00
2595,800.00
2596,-320.00
2597,-1280.00
2598,-1960.00
2599,-2200.00
2600,-1800.00
2601,-1040.00
2602,40.00
2603,1080.00
2604,1800.00
2605,2160.00
2606,1920.00
2607,1320.00
2608,200.00
2609,-840.00
2610,-1600.00
2611,-2160.00
2612,-2040.00
2613,-1440.00
2614,-520.00
2615,600.00
2616,1440.00
2617,2040.00
2618,2120.00
2619,1640.00
2620,800.00
2621,-360.00
2622,-1280.00
2623,-1960.00
2624,-2200.00
2625,-1800.00
2626,-1080.00
2627,40.00
2628,1080.00
2629,1800.00
2630,2200.00
2631,1920.00
2632,1280.00
2633,200.00
2634,-840.00
2635,-1640.00
2636,-2160.00
2637,-2040.00
2638,-1440.00
2639,-560.00
2640,600.00
2641,1440.00
2642,2040.00
2643,2120.00
2644,1640.00
2645,800.00
2646,-320.00
2647,-1280.00
2648,-1960.00
2649,-2200.00
2650,-1800.00
2651,-1040.00
2652,40.00
2653,1040.00
2654,1800.00
2655,2200.00
2656,1920.00
2657,1280.00
2658,200.00
2659,-880.00
2660,-1640.00
2661,-2160.00
2662,-2040.00
2663,-1440.00
2664,-560.00
2665,600.00
2666,1440.00
2667,2040.00
2668,2120.00
2669,1640.00
2670,800.00
2671,-360.00
2672,-1280.00
2673,-1960.00
2674,-2200.00
2675,-1800.00
2676,-1080.00
2677,40.00
2678,1040.00
2679,1800.00
2680,2200.00
2681,1920.00
2682,1320.00
2683,200.00
2684,-880.00
2685,-1640.00
2686,-2160.00
2687,-2040.00
2688,-1800.00
2689,-1680.00
2690,-1480.00
2691,-1400.00
2692,-1320.00
2693,-1200.00
2694,-1120.00
2695,-520.00
2696,440.00
2697,1360.00
2698,2040.00
2699,2200.00
2700,1920.00
2701,1680.00
2702,1520.00
2703,1440.00
2704,1360.00
2705,1280.00
2706,1200.00
2707,920.00
2708,40.00
2709,-920.00
2710,-1720.00
2711,-2160.00
2712,-2120.00
2713,-1480.00
2714,-520.00
2715,560.00
2716,1440.00
2717,2080.00
2718,2120.00
2719,1640.00
2720,800.00
2721,-320.00
2722,-1280.00
2723,-1960.00
2724,-2200.00
2725,-1800.00
2726,-1080.00
2727,40.00
2728,1080.00
2729,1800.00
2730,2200.00
2731,1920.00
2732,1320.00
2733,200.00
2734,-840.00
2735,-1600.00
2736,-2160.00
2737,-2040.00
2738,-1440.00
2739,-520.00
2740,600.00
2741,1440.00
2742,2040.00
2743,2120.00
2744,1640.00
2745,800.00
2746,-360.00
2747,-1280.00
2748,-1960.00
2749,-2200.00
2750,-1800.00
2751,-1080.00
2752,40.00
2753,1080.00
2754,1800.00
2755,2200.00
2756,1920.00
2757,1280.00
2758,200.00
2759,-840.00
2760,-1640.00
2761,-2160.00
2762,-2040.00
2763,-1440.00
2764,-520.00
2765,600.00
2766,1440.00
2767,2040.00
2768,2120.00
2769,1640.00
2770,800.00
2771,-320.00
2772,-1280.00
2773,-2000.00
2774,-2200.00
2775,-1800.00
2776,-1000.00
2777,40.00
2778,1080.00
2779,1800.00
2780,2200.00
2781,1920.00
2782,1280.00
2783,200.00
2784,-880.00
2785,-1640.00
2786,-2160.00
2787,-2040.00
2788,-1440.00
2789,-560.00
2790,600.00
2791,1440.00
2792,2040.00
2793,2120.00
2794,1640.00
2795,800.00
2796,-360.00
2797,-1280.00
2798,-1960.00
2799,-2200.00
2800,-1760.00
2801,-1040.00
2802,40.00
2803,1080.00
2804,1800.00
2805,2200.00
2806,1920.00
2807,1280.00
2808,200.00
2809,-840.00
2810,-1640.00
2811,-2160.00
2812,-2040.00
2813,-1440.00
2814,-520.00
2815,600.00
2816,1440.00
2817,2040.00
2818,2120.00
2819,1640.00
2820,800.00
2821,-360.00
2822,-1280.00
2823,-1960.00
2824,-2200.00
2825,-1800.00
2826,-1040.00
2827,40.00
2828,1080.00
2829,1800.00
2830,2200.00
2831,1920.00
2832,1280.00
2833,200.00
2834,-880.00
2835,-1640.00
2836,-2160.00
2837,-2040.00
2838,-1440.00
2839,-560.00
2840,600.00
2841,1440.00
2842,2040.00
2843,2120.00
2844,1640.00
2845,800.00
2846,-360.00
2847,-1280.00
2848,-2000.00
2849,-2200.00
2850,-1800.00
2851,-1000.00
2852,40.00
2853,1080.00
2854,1800.00
2855,2160.00
2856,1920.00
2857,1320.00
2858,200.00
2859,-840.00
2860,-1640.00
2861,-2160.00
2862,-2040.00
2863,-1800.00
2864,-1640.00
2865,-1520.00
2866,-1400.00
2867,-1320.00
2868,-1200.00
2869,-1120.00
2870,-520.00
2871,480.00
2872,1360.00
2873,2040.00
2874,2200.00
2875,1760.00
2876,1080.00
2877,-40.00
2878,-1000.00
2879,-1800.00
2880,-2160.00
2881,-1920.00
2882,-1280.00
2883,-160.00
2884,880.00
2885,1640.00
2886,2120.00
2887,2040.00
2888,1800.00
2889,1600.00
2890,1480.00
2891,1440.00
2892,1320.00
2893,1240.00
2894,1120.00
2895,560.00
2896,-440.00
2897,-1360.00
2898,-2000.00
2899,-2200.00
2900,-1800.00
2901,-1080.00
2902,40.00
2903,1080.00
2904,1800.00
2905,2200.00
2906,1920.00
2907,1320.00
2908,200.00
2909,-880.00
2910,-1680.00
2911,-2160.00
2912,-2040.00
2913,-1440.00
2914,-520.00
2915,600.00
2916,1440.00
2917,2040.00
2918,2120.00
2919,1640.00
2920,800.00
2921,-360.00
2922,-1280.00
2923,-2000.00
2924,-2200.00
2925,-1760.00
2926,-1040.00
2927,40.00
2928,1080.00
2929,1800.00
2930,2200.00
2931,1920.00
2932,1320.00
2933,200.00
2934,-840.00
2935,-1640.00
2936,-2160.00
2937,-2040.00
2938,-1440.00
2939,-520.00
2940,600.00
2941,1440.00
2942,2040.00
2943,2120.00
2944,1640.00
2945,800.00
2946,-360.00
2947,-1280.00
2948,-2000.00
2949,-2200.00
2950,-1760.00
2951,-1040.00
2952,40.00
2953,1080.00
2954,1800.00
2955,2200.00
2956,1920.00
2957,1280.00
2958,200.00
2959,-880.00
2960,-1640.00
2961,-2160.00
2962,-2040.00
2963,-1440.00
2964,-560.00
2965,600.00
2966,1440.00
2967,2040.00
2968,2120.00
2969,1640.00
2970,800.00
2971,-320.00
2972,-1280.00
2973,-2000.00
2974,-2160.00
2975,-1880.00
2976,-1760.00
2977,-1560.00
2978,-1440.00
2979,-1360.00
2980,-1280.00
2981,-1120.00
2982,-920.00
2983,-40.00
2984,920.00
2985,1760.00
2986,2200.00
2987,2120.00
2988,1800.00
2989,1640.00
2990,1480.00
2991,1440.00
2992,1320.00
2993,1240.00
2994,1080.00
2995,560.00
2996,-440.00
2997,-1360.00
2998,-2000.00
2999,-2200.00
3000,40.00
3001,1080.00
3002,1800.00
3003,2200.00
3004,1920.00
3005,1280.00
3006,200.00
3007,-840.00
3008,-1640.00
3009,-2160.00
3010,-2040.00
3011,-1440.00
3012,-520.00
3013,600.00
3014,1440.00
3015,2040.00
3016,2120.00
3017,1640.00
3018,800.00
3019,-360.00
3020,-1280.00
3021,-2000.00
3022,-2200.00
3023,-1760.00
3024,-1040.00
3025,40.00
3026,1080.00
3027,1800.00
3028,2200.00
3029,1920.00
3030,1320.00
3031,200.00
3032,-840.00
3033,-1640.00
3034,-2160.00
3035,-2040.00
3036,-1440.00
3037,-520.00
3038,600.00
3039,1440.00
3040,2040.00
3041,2120.00
3042,1640.00
3043,800.00
3044,-320.00
3045,-1280.00
3046,-1960.00
3047,-2200.00
3048,-1760.00
3049,-1040.00
3050,40.00
3051,1080.00
3052,1800.00
3053,2200.00
3054,1920.00
3055,1280.00
3056,200.00
3057,-840.00
3058,-1640.00
3059,-2160.00
3060,-2040.00
3061,-1440.00
3062,-520.00
3063,600.00
3064,1440.00
3065,2040.00
3066,2120.00
3067,1640.00
3068,800.00
3069,-320.00
3070,-1280.00
3071,-1960.00
3072,-2200.00
3073,-1800.00
3074,-1040.00
3075,40.00
3076,1080.00
3077,1800.00
3078,2200.00
3079,1920.00
3080,1320.00
3081,200.00
3082,-840.00
3083,-1640.00
3084,-2160.00
3085,-2040.00
3086,-1440.00
3087,-560.00
3088,600.00
3089,1440.00
3090,2040.00
3091,2120.00
3092,1640.00
3093,800.00
3094,-360.00
3095,-1280.00
3096,-1920.00
3097,-2200.00
3098,-1800.00
3099,-1040.00
3100,40.00
3101,1080.00
3102,1800.00
3103,2200.00
3104,1920.00
3105,1320.00
3106,200.00
3107,-840.00
3108,-1640.00
3109,-2160.00
3110,-2040.00
3111,-1440.00
3112,-560.00
3113,600.00
3114,1440.00
3115,2040.00
3116,2120.00
3117,1640.00
3118,800.00
3119,-320.00
3120,-1280.00
3121,-2000.00
3122,-2160.00
3123,-1800.00
3124,-1080.00
3125,40.00
3126,1080.00
3127,1800.00
3128,2200.00
3129,1920.00
3130,1320.00
3131,200.00
3132,-840.00
3133,-1600.00
3134,-2160.00
3135,-2040.00
3136,-1440.00
3137,-520.00
3138,560.00
3139,1440.00
3140,2040.00
3141,2120.00
3142,1640.00
3143,800.00
3144,-320.00
3145,-1280.00
3146,-1920.00
3147,-2200.00
3148,-1840.00
3149,-1760.00
3150,-1560.00
3151,-1440.00
3152,-1360.00
3153,-1280.00
3154,-1120.00
3155,-920.00
3156,-80.00
3157,880.00
3158,1760.00
3159,2200.00
3160,2120.00
3161,1800.00
3162,1640.00
3163,1520.00
3164,1440.00
3165,1320.00
3166,1240.00
3167,1080.00
3168,560.00
3169,-440.00
3170,-1360.00
3171,-2000.00
3172,-2240.00
3173,-1800.00
3174,-1120.00
3175,40.00
3176,1040.00
3177,1800.00
3178,2200.00
3179,1960.00
3180,1320.00
3181,200.00
3182,-840.00
3183,-1600.00
3184,-2160.00
3185,-2040.00
3186,-1440.00
3187,-520.00
3188,560.00
3189,1440.00
3190,2040.00
3191,2120.00
3192,1640.00
3193,800.00
3194,-320.00
3195,-1280.00
3196,-1960.00
3197,-2200.00
3198,-1800.00
3199,-1080.00
3200,40.00
3201,1080.00
3202,1800.00
3203,2160.00
3204,1920.00
3205,1320.00
3206,200.00
3207,-840.00
3208,-1600.00
3209,-2160.00
3210,-2040.00
3211,-1440.00
3212,-560.00
3213,560.00
3214,1440.00
3215,2040.00
3216,2120.00
3217,1640.00
3218,800.00
3219,-320.00
3220,-1240.00
3221,-1920.00
3222,-2200.00
3223,-1800.00
3224,-1080.00
3225,0.00
3226,1080.00
3227,1800.00
3228,2200.00
3229,1920.00
3230,1320.00
3231,200.00
3232,-840.00
3233,-1600.00
3234,-2160.00
3235,-2040.00
3236,-1440.00
3237,-520.00
3238,560.00
3239,1440.00
3240,2040.00
3241,2120.00
3242,1640.00
3243,800.00
3244,-320.00
3245,-1280.00
3246,-1920.00
3247,-2200.00
3248,-1800.00
3249,-1080.00
3250,40.00
3251,1080.00
3252,1800.00
3253,2200.00
3254,1920.00
3255,1320.00
3256,200.00
3257,-840.00
3258,-1600.00
3259,-2160.00
3260,-2040.00
3261,-1440.00
3262,-560.00
3263,560.00
3264,1440.00
3265,2040.00
3266,2120.00
3267,1640.00
3268,800.00
3269,-320.00
3270,-1280.00
3271,-1920.00
3272,-2200.00
3273,-1880.00
3274,-1760.00
3275,-1560.00
3276,-1440.00
3277,-1360.00
3278,-1280.00
3279,-1160.00
3280,-920.00
3281,-80.00
3282,920.00
3283,1760.00
3284,2200.00
3285,2080.00
3286,1800.00
3287,1640.00
3288,1480.00
3289,1440.00
3290,1360.00
3291,1200.00
3292,1080.00
3293,560.00
3294,-440.00
3295,-1360.00
3296,-2000.00
3297,-2240.00
3298,-1960.00
3299,-1760.00
3300,-1560.00
3301,-1440.00
3302,-1360.00
3303,-1280.00
3304,-1160.00
3305,-920.00
3306,-80.00
3307,880.00
3308,1760.00
3309,2200.00
3310,2080.00
3311,1480.00
3312,560.00
3313,-560.00
3314,-1440.00
3315,-2040.00
3316,-2080.00
3317,-1600.00
3318,-880.00
3319,360.00
3320,1320.00
3321,1960.00
3322,2120.00
3323,1760.00
3324,1040.00
3325,-40.00
3326,-1000.00
3327,-1800.00
3328,-2160.00
3329,-1920.00
3330,-1280.00
3331,-240.00
3332,880.00
3333,1640.00
3334,2120.00
3335,2080.00
3336,1840.00
3337,1640.00
3338,1480.00
3339,1400.00
3340,1320.00
3341,1240.00
3342,1080.00
3343,560.00
3344,-440.00
3345,-1320.00
3346,-2000.00
3347,-2240.00
3348,-1960.00
3349,-1760.00
3350,-1560.00
3351,-1440.00
3352,-1360.00
3353,-1280.00
3354,-1160.00
3355,-920.00
3356,-80.00
3357,920.00
3358,1760.00
3359,2200.00
3360,2120.00
3361,1800.00
3362,1640.00
3363,1520.00
3364,1440.00
3365,1320.00
3366,1240.00
3367,1080.00
3368,560.00
3369,-440.00
3370,-1320.00
3371,-2000.00
3372,-2240.00
3373,-2000.00
3374,-1760.00
3375,-1560.00
3376,-1440.00
3377,-1360.00
3378,-1280.00
3379,-1160.00
3380,-920.00
3381,-40.00
3382,920.00
3383,1760.00
3384,2200.00
3385,2120.00
3386,1800.00
3387,1680.00
3388,1480.00
3389,1440.00
3390,1360.00
3391,1240.00
3392,1160.00
3393,560.00
3394,-400.00
3395,-1320.00
3396,-2000.00
3397,-2200.00
3398,-1920.00
3399,-1760.00
3400,-1560.00
3401,-1440.00
3402,-1360.00
3403,-1280.00
3404,-1160.00
3405,-920.00
3406,-80.00
3407,880.00
3408,1760.00
3409,2200.00
3410,2080.00
3411,1480.00
3412,520.00
3413,-560.00
3414,-1440.00
3415,-2080.00
3416,-2080.00
3417,-1600.00
3418,-840.00
3419,360.00
3420,1320.00
3421,1960.00
3422,2120.00
3423,1760.00
3424,1040.00
3425,-80.00
3426,-1000.00
3427,-1800.00
3428,-2160.00
3429,-1880.00
3430,-1280.00
3431,-240.00
3432,880.00
3433,1640.00
3434,2120.00
3435,2040.00
3436,1800.00
3437,1600.00
3438,1480.00
3439,1400.00
3440,1320.00
3441,1240.00
3442,1120.00
3443,560.00
3444,-440.00
3445,-1320.00
3446,-2000.00
3447,-2240.00
3448,-1800.00
3449,-1120.00
3450,40.00
3451,1080.00
3452,1800.00
3453,2200.00
3454,1960.00
3455,1320.00
3456,200.00
3457,-840.00
3458,-1640.00
3459,-2160.00
3460,-2000.00
3461,-1440.00
3462,-520.00
3463,600.00
3464,1440.00
3465,2080.00
3466,2120.00
3467,1640.00
3468,800.00
3469,-320.00
3470,-1280.00
3471,-1960.00
3472,-2200.00
3473,-1800.00
3474,-1040.00
3475,40.00
3476,1080.00
3477,1800.00
3478,2200.00
3479,1920.00
3480,1280.00
3481,200.00
3482,-840.00
3483,-1640.00
3484,-2160.00
3485,-2040.00
3486,-1800.00
3487,-1640.00
3488,-1480.00
3489,-1400.00
3490,-1320.00
3491,-1200.00
3492,-1080.00
3493,-520.00
3494,480.00
3495,1360.00
3496,2040.00
3497,2200.00
3498,1920.00
3499,1760.00
3500,1520.00
3501,1440.00
3502,1360.00
3503,1280.00
3504,1200.00
3505,880.00
3506,40.00
3507,-920.00
3508,-1720.00
3509,-2160.00
3510,-2080.00
3511,-1480.00
3512,-520.00
3513,600.00
3514,1440.00
3515,2080.00
3516,2120.00
3517,1640.00
3518,800.00
3519,-360.00
3520,-1280.00
3521,-1960.00
3522,-2200.00
3523,-1880.00
3524,-1760.00
3525,-1560.00
3526,-1440.00
3527,-1360.00
3528,-1280.00
3529,-1160.00
3530,-920.00
3531,-80.00
3532,920.00
3533,1760.00
3534,2200.00
3535,2120.00
3536,1800.00
3537,1640.00
3538,1480.00
3539,1440.00
3540,1320.00
3541,1240.00
3542,1080.00
3543,560.00
3544,-440.00
3545,-1360.00
3546,-2000.00
3547,-2200.00
3548,-1920.00
3549,-1760.00
3550,-1560.00
3551,-1440.00
3552,-1360.00
3553,-1280.00
3554,-1160.00
3555,-920.00
3556,-40.00
3557,920.00
3558,1760.00
3559,2200.00
3560,2120.00
3561,1440.00
3562,520.00
3563,-560.00
3564,-1440.00
3565,-2040.00
3566,-2080.00
3567,-1640.00
3568,-840.00
3569,360.00
3570,1320.00
3571,1960.00
3572,2200.00
3573,1880.00
3574,1760.00
3575,1520.00
3576,1440.00
3577,1360.00
3578,1280.00
3579,1200.00
3580,920.00
3581,40.00
3582,-920.00
3583,-1720.00
3584,-2160.00
3585,-2120.00
3586,-1840.00
3587,-1640.00
3588,-1480.00
3589,-1440.00
3590,-1320.00
3591,-1200.00
3592,-1080.00
3593,-520.00
3594,440.00
3595,1360.00
3596,2040.00
3597,2200.00
3598,1920.00
3599,1680.00
3600,1360.00
3601,1240.00
3602,1200.00
3603,920.00
3604,40.00
3605,-920.00
3606,-1720.00
3607,-2200.00
3608,-2080.00
3609,-1480.00
3610,-520.00
3611,600.00
3612,1440.00
3613,2040.00
3614,2120.00
3615,1640.00
3616,800.00
3617,-360.00
3618,-1280.00
3619,-2000.00
3620,-2200.00
3621,-1840.00
3622,-1760.00
3623,-1560.00
3624,-1440.00
3625,-1360.00
3626,-1280.00
3627,-1160.00
3628,-920.00
3629,-40.00
3630,920.00
3631,1760.00
3632,2200.00
3633,2080.00
3634,1440.00
3635,520.00
3636,-560.00
3637,-1440.00
3638,-2080.00
3639,-2080.00
3640,-1640.00
3641,-880.00
3642,320.00
3643,1320.00
3644,1960.00
3645,2160.00
3646,1760.00
3647,1040.00
3648,-80.00
3649,-1040.00
3650,-1800.00
3651,-2160.00
3652,-1920.00
3653,-1280.00
3654,-200.00
3655,880.00
3656,1640.00
3657,2120.00
3658,2080.00
3659,1440.00
3660,520.00
3661,-600.00
3662,-1440.00
3663,-2080.00
3664,-2080.00
3665,-1600.00
3666,-840.00
3667,360.00
3668,1320.00
3669,1960.00
3670,2120.00
3671,1760.00
3672,1040.00
3673,-80.00
3674,-1040.00
3675,-1800.00
3676,-2160.00
3677,-1880.00
3678,-1280.00
3679,-200.00
3680,880.00
3681,1640.00
3682,2120.00
3683,2040.00
3684,1480.00
3685,520.00
3686,-600.00
3687,-1440.00
3688,-2040.00
3689,-2160.00
3690,-1600.00
3691,-840.00
3692,320.00
3693,1320.00
3694,1960.00
3695,2160.00
3696,1760.00
3697,1040.00
3698,-80.00
3699,-1040.00
3700,-1800.00
3701,-2160.00
3702,-1920.00
3703,-1280.00
3704,-200.00
3705,880.00
3706,1640.00
3707,2120.00
3708,2040.00
3709,1480.00
3710,520.00
3711,-600.00
3712,-1440.00
3713,-2040.00
3714,-2120.00
3715,-1600.00
3716,-840.00
3717,320.00
3718,1320.00
3719,1960.00
3720,2160.00
3721,1880.00
3722,1680.00
3723,1520.00
3724,1440.00
3725,1360.00
3726,1280.00
3727,1200.00
3728,920.00
3729,40.00
3730,-920.00
3731,-1720.00
3732,-2160.00
3733,-2120.00
3734,-1800.00
3735,-1600.00
3736,-1520.00
3737,-1400.00
3738,-1320.00
3739,-1200.00
3740,-1080.00
3741,-520.00
3742,480.00
3743,1320.00
3744,2040.00
3745,2200.00
3746,1920.00
3747,1760.00
3748,1520.00
3749,1440.00
3750,1360.00
3751,1280.00
3752,1200.00
3753,880.00
3754,40.00
3755,-920.00
3756,-1720.00
3757,-2160.00
3758,-2080.00
3759,-1840.00
3760,-1640.00
3761,-1480.00
3762,-1400.00
3763,-1320.00
3764,-1200.00
3765,-1080.00
3766,-520.00
3767,480.00
3768,1360.00
3769,2040.00
3770,2200.00
3771,1800.00
3772,1080.00
3773,0.00
3774,-1000.00
3775,-1800.00
3776,-2160.00
3777,-1960.00
3778,-1280.00
3779,-240.00
3780,800.00
3781,1680.00
3782,2120.00
3783,2040.00
3784,1480.00
3785,520.00
3786,-560.00
3787,-1440.00
3788,-2040.00
3789,-2120.00
3790,-1600.00
3791,-840.00
3792,360.00
3793,1320.00
3794,1960.00
3795,2200.00
3796,1760.00
3797,1080.00
3798,-80.00
3799,-1000.00
3800,-1800.00
3801,-2200.00
3802,-1920.00
3803,-1280.00
3804,-240.00
3805,880.00
3806,1640.00
3807,2120.00
3808,2080.00
3809,1800.00
3810,1640.00
3811,1480.00
3812,1400.00
3813,1320.00
3814,1240.00
3815,1080.00
3816,560.00
3817,-440.00
3818,-1320.00
3819,-2000.00
3820,-2240.00
3821,-1960.00
3822,-1800.00
3823,-1560.00
3824,-1440.00
3825,-1360.00
3826,-1280.00
3827,-1160.00
3828,-960.00
3829,-80.00
3830,920.00
3831,1760.00
3832,2200.00
3833,2080.00
3834,1800.00
3835,1640.00
3836,1480.00
3837,1440.00
3838,1320.00
3839,1200.00
3840,1080.00
3841,560.00
3842,-400.00
3843,-1320.00
3844,-2000.00
3845,-2240.00
3846,-1800.00
3847,-1120.00
3848,40.00
3849,1080.00
3850,1800.00
3851,2200.00
3852,1920.00
3853,1320.00
3854,200.00
3855,-840.00
3856,-1640.00
3857,-2160.00
3858,-2040.00
3859,-1440.00
3860,-560.00
3861,600.00
3862,1440.00
3863,2040.00
3864,2120.00
3865,1680.00
3866,800.00
3867,-320.00
3868,-1280.00
3869,-1960.00
3870,-2200.00
3871,-1800.00
3872,-1080.00
3873,40.00
3874,1080.00
3875,1800.00
3876,2200.00
3877,1920.00
3878,1320.00
3879,200.00
3880,-840.00
3881,-1600.00
3882,-2160.00
3883,-2040.00
3884,-1440.00
3885,-560.00
3886,560.00
3887,1440.00
3888,2040.00
3889,2120.00
3890,1680.00
3891,800.00
3892,-320.00
3893,-1280.00
3894,-2000.00
3895,-2160.00
3896,-1760.00
3897,-1040.00
3898,40.00
3899,1080.00
3900,1800.00
3901,2200.00
3902,1920.00
3903,1280.00
3904,200.00
3905,-840.00
3906,-1640.00
3907,-2160.00
3908,-2040.00
3909,-1440.00
3910,-560.00
3911,560.00
3912,1440.00
3913,2040.00
3914,2120.00
3915,1640.00
3916,800.00
3917,-320.00
3918,-1280.00
3919,-2000.00
3920,-2200.00
3921,-1920.00
3922,-1760.00
3923,-1560.00
3924,-1440.00
3925,-1360.00
3926,-1280.00
3927,-1160.00
3928,-920.00
3929,-80.00
3930,880.00
3931,1760.00
3932,2200.00
3933,2080.00
3934,1480.00
3935,560.00
3936,-560.00
3937,-1440.00
3938,-2080.00
3939,-2120.00
3940,-1600.00
3941,-880.00
3942,320.00
3943,1280.00
3944,1960.00
3945,2200.00
3946,1880.00
3947,1760.00
3948,1520.00
3949,1440.00
3950,1400.00
3951,1240.00
3952,1200.00
3953,880.00
3954,40.00
3955,-920.00
3956,-1720.00
3957,-2160.00
3958,-2080.00
3959,-1480.00
3960,-520.00
3961,560.00
3962,1440.00
3963,2040.00
3964,2120.00
3965,1640.00
3966,800.00
3967,-320.00
3968,-1280.00
3969,-1960.00
3970,-2200.00
3971,-1800.00
3972,-1080.00
3973,40.00
3974,1080.00
3975,1800.00
3976,2160.00
3977,1960.00
3978,1320.00
3979,200.00
3980,-840.00
3981,-1640.00
3982,-2160.00
3983,-2040.00
3984,-1800.00
3985,-1640.00
3986,-1520.00
3987,-1400.00
3988,-1320.00
3989,-1200.00
3990,-1120.00
3991,-520.00
3992,440.00
3993,1320.00
3994,2040.00
3995,2200.00
3996,1960.00
3997,1680.00
3998,1520.00
3999,1440.00
4000,1360.00
4001,1240.00
4002,1200.00
4003,920.00
4004,40.00
4005,-920.00
4006,-1720.00
4007,-2160.00
4008,-2160.00
4009,-1800.00
4010,-1640.00
4011,-1520.00
4012,-1440.00
4013,-1320.00
4014,-1240.00
4015,-1080.00
4016,-520.00
4017,440.00
4018,1360.00
4019,2040.00
4020,2240.00
4021,1920.00
4022,1760.00
4023,1520.00
4024,1440.00
4025,1360.00
4026,1280.00
4027,1200.00
4028,880.00
4029,40.00
4030,-920.00
4031,-1720.00
4032,-2160.00
4033,-2120.00
4034,-1840.00
4035,-1640.00
4036,-1560.00
4037,-1440.00
4038,-1320.00
4039,-1200.00
4040,-1080.00
4041,-520.00
4042,440.00
4043,1360.00
4044,2040.00
4045,2200.00
4046,1920.00
4047,1760.00
4048,1520.00
4049,1440.00
4050,1360.00
4051,1280.00
4052,1200.00
4053,880.00
4054,40.00
4055,-920.00
4056,-1720.00
4057,-2160.00
4058,-2160.00
4059,-1840.00
4060,-1640.00
4061,-1520.00
4062,-1440.00
4063,-1320.00
4064,-1240.00
4065,-1080.00
4066,-560.00
4067,440.00
4068,1360.00
4069,2040.00
4070,2240.00
4071,1920.00
4072,1760.00
4073,1520.00
4074,1440.00
4075,1360.00
4076,1280.00
4077,1200.00
4078,880.00
4079,40.00
4080,-920.00
4081,-1720.00
4082,-2160.00
4083,-2120.00
4084,-1480.00
4085,-520.00
4086,560.00
4087,1440.00
4088,2080.00
4089,2120.00
4090,1640.00
4091,800.00
4092,-320.00
4093,-1280.00
4094,-1960.00
4095,-2200.00
4096,-1800.00
4097,-1040.00
4098,40.00
4099,1080.00
4100,1800.00
4101,2200.00
4102,1920.00
4103,1280.00
4104,200.00
4105,-840.00
4106,-1640.00
4107,-2160.00
4108,-2040.00
4109,-1440.00
4110,-560.00
4111,600.00
4112,1440.00
4113,2040.00
4114,2120.00
4115,1640.00
4116,800.00
4117,-360.00
4118,-1280.00
4119,-2000.00
4120,-2200.00
4121,-1800.00
4122,-1040.00
4123,40.00
4124,1080.00
4125,1800.00
4126,2200.00
4127,1920.00
4128,1280.00
4129,200.00
4130,-840.00
4131,-1640.00
4132,-2160.00
4133,-2040.00
4134,-1440.00
4135,-560.00
4136,600.00
4137,1440.00
4138,2040.00
4139,2120.00
4140,1640.00
4141,800.00
4142,-320.00
4143,-1280.00
4144,-1960.00
4145,-2160.00
4146,-1760.00
4147,-1040.00
4148,40.00
4149,1080.00
4150,1800.00
4151,2160.00
4152,1920.00
4153,1280.00
4154,200.00
4155,-840.00
4156,-1640.00
4157,-2160.00
4158,-2040.00
4159,-1440.00
4160,-560.00
4161,600.00
4162,1440.00
4163,2040.00
4164,2120.00
4165,1640.00
4166,800.00
4167,-320.00
4168,-1280.00
4169,-2000.00
4170,-2160.00
4171,-1880.00
4172,-1760.00
4173,-1560.00
4174,-1440.00
4175,-1360.00
4176,-1280.00
4177,-1160.00
4178,-920.00
4179,-80.00
4180,880.00
4181,1760.00
4182,2200.00
4183,2120.00
4184,1800.00
4185,1640.00
4186,1480.00
4187,1440.00
4188,1320.00
4189,1240.00
4190,1080.00
4191,560.00
4192,-440.00
4193,-1360.00
4194,-2000.00
4195,-2200.00
4196,-1800.00
4197,-1080.00
4198,40.00
4199,1080.00
4200,1920.00
4201,1280.00
4202,200.00
4203,-840.00
4204,-1600.00
4205,-2160.00
4206,-2040.00
4207,-1440.00
4208,-520.00
4209,560.00
4210,1440.00
4211,2040.00
4212,2120.00
4213,1640.00
4214,800.00
4215,-360.00
4216,-1280.00
4217,-1920.00
4218,-2200.00
4219,-1840.00
4220,-1760.00
4221,-1560.00
4222,-1440.00
4223,-1360.00
4224,-1280.00
4225,-1160.00
4226,-960.00
4227,-80.00
4228,920.00
4229,1760.00
4230,2200.00
4231,2080.00
4232,1480.00
4233,520.00
4234,-600.00
4235,-1440.00
4236,-2080.00
4237,-2120.00
4238,-1600.00
4239,-840.00
4240,320.00
4241,1320.00
4242,1920.00
4243,2160.00
4244,1840.00
4245,1680.00
4246,1520.00
4247,1440.00
4248,1360.00
4249,1320.00
4250,1200.00
4251,920.00
4252,40.00
4253,-920.00
4254,-1720.00
4255,-2160.00
4256,-2120.00
4257,-1480.00
4258,-520.00
4259,600.00
4260,1480.00
4261,2080.00
4262,2080.00
4263,1640.00
4264,800.00
4265,-320.00
4266,-1280.00
4267,-1960.00
4268,-2200.00
4269,-1760.00
4270,-1040.00
4271,40.00
4272,1080.00
4273,1800.00
4274,2200.00
4275,1920.00
4276,1280.00
4277,200.00
4278,-840.00
4279,-1640.00
4280,-2160.00
4281,-2040.00
4282,-1440.00
4283,-520.00
4284,600.00
4285,1440.00
4286,2040.00
4287,2120.00
4288,1640.00
4289,800.00
4290,-360.00
4291,-1280.00
4292,-2000.00
4293,-2160.00
4294,-1760.00
4295,-1040.00
4296,40.00
4297,1080.00
4298,1800.00
4299,2200.00
4300,1920.00
4301,1280.00
4302,200.00
4303,-840.00
4304,-1640.00
4305,-2160.00
4306,-2040.00
4307,-1440.00
4308,-520.00
4309,600.00
4310,1480.00
4311,2080.00
4312,2120.00
4313,1640.00
4314,800.00
4315,-320.00
4316,-1280.00
4317,-2000.00
4318,-2200.00
4319,-1800.00
4320,-1040.00
4321,40.00
4322,1080.00
4323,1800.00
4324,2200.00
4325,1920.00
4326,1280.00
4327,200.00
4328,-840.00
4329,-1640.00
4330,-2160.00
4331,-2040.00
4332,-1440.00
4333,-560.00
4334,600.00
4335,1440.00
4336,2040.00
4337,2120.00
4338,1640.00
4339,800.00
4340,-360.00
4341,-1280.00
4342,-1960.00
4343,-2200.00
4344,-1760.00
4345,-1040.00
4346,40.00
4347,1080.00
4348,1800.00
4349,2200.00
4350,1960.00
4351,1280.00
4352,200.00
4353,-840.00
4354,-1640.00
4355,-2160.00
4356,-2040.00
4357,-1440.00
4358,-560.00
4359,600.00
4360,1440.00
4361,2040.00
4362,2120.00
4363,1640.00
4364,800.00
4365,-360.00
4366,-1280.00
4367,-2000.00
4368,-2200.00
4369,-1760.00
4370,-1120.00
4371,40.00
4372,1080.00
4373,1800.00
4374,2200.00
4375,1920.00
4376,1280.00
4377,200.00
4378,-880.00
4379,-1640.00
4380,-2160.00
4381,-2040.00
4382,-1440.00
4383,-560.00
4384,600.00
4385,1440.00
4386,2040.00
4387,2120.00
4388,1640.00
4389,800.00
4390,-360.00
4391,-1280.00
4392,-1960.00
4393,-2160.00
4394,-1760.00
4395,-1040.00
4396,40.00
4397,1080.00
4398,1800.00
4399,2200.00
4400,1920.00
4401,1280.00
4402,200.00
4403,-840.00
4404,-1640.00
4405,-2160.00
4406,-2040.00
4407,-1440.00
4408,-520.00
4409,600.00
4410,1440.00
4411,2040.00
4412,2120.00
4413,1600.00
4414,800.00
4415,-400.00
4416,-1280.00
4417,-1960.00
4418,-2200.00
4419,-1800.00
4420,-1040.00
4421,40.00
4422,1080.00
4423,1800.00
4424,2200.00
4425,1920.00
4426,1240.00
4427,200.00
4428,-840.00
4429,-1640.00
4430,-2160.00
4431,-2040.00
4432,-1440.00
4433,-520.00
4434,600.00
4435,1440.00
4436,2080.00
4437,2120.00
4438,1640.00
4439,800.00
4440,-320.00
4441,-1280.00
4442,-2000.00
4443,-2160.00
4444,-1760.00
4445,-1040.00
4446,40.00
4447,1080.00
4448,1800.00
4449,2200.00
4450,1920.00
4451,1320.00
4452,200.00
4453,-840.00
4454,-1640.00
4455,-2160.00
4456,-2040.00
4457,-1440.00
4458,-520.00
4459,600.00
4460,1440.00
4461,2080.00
4462,2120.00
4463,1640.00
4464,800.00
4465,-360.00
4466,-1280.00
4467,-1920.00
4468,-2200.00
4469,-1800.00
4470,-1040.00
4471,40.00
4472,1080.00
4473,1800.00
4474,2200.00
4475,1920.00
4476,1320.00
4477,200.00
4478,-840.00
4479,-1640.00
4480,-2160.00
4481,-2040.00
4482,-1440.00
4483,-520.00
4484,600.00
4485,1440.00
4486,2040.00
4487,2120.00
4488,1640.00
4489,800.00
4490,-320.00
4491,-1280.00
4492,-2000.00
4493,-2200.00
4494,-1800.00
4495,-1040.00
4496,40.00
4497,1080.00
4498,1800.00
4499,2200.00
4500,1920.00
4501,1320.00
4502,200.00
4503,-840.00
4504,-1640.00
4505,-2160.00
4506,-2040.00
4507,-1440.00
4508,-520.00
4509,600.00
4510,1440.00
4511,2040.00
4512,2120.00
4513,1640.00
4514,800.00
4515,-320.00
4516,-1280.00
4517,-1960.00
4518,-2200.00
4519,-1800.00
4520,-1040.00
4521,40.00
4522,1080.00
4523,1800.00
4524,2200.00
4525,1920.00
4526,1320.00
4527,200.00
4528,-840.00
4529,-1640.00
4530,-2160.00
4531,-2040.00
4532,-1440.00
4533,-520.00
4534,600.00
4535,1440.00
4536,2040.00
4537,2120.00
4538,1640.00
4539,800.00
4540,-360.00
4541,-1280.00
4542,-1960.00
4543,-2200.00
4544,-1800.00
4545,-1040.00
4546,40.00
4547,1080.00
4548,1800.00
4549,2200.00
4550,1920.00
4551,1280.00
4552,200.00
4553,-840.00
4554,-1600.00
4555,-2160.00
4556,-2040.00
4557,-1400.00
4558,-520.00
4559,600.00
4560,1480.00
4561,2040.00
4562,2120.00
4563,1640.00
4564,800.00
4565,-320.00
4566,-1280.00
4567,-1920.00
4568,-2200.00
4569,-1800.00
4570,-1040.00
4571,40.00
4572,1080.00
4573,1800.00
4574,2200.00
4575,1920.00
4576,1320.00
4577,200.00
4578,-840.00
4579,-1640.00
4580,-2160.00
4581,-2040.00
4582,-1440.00
4583,-560.00
4584,600.00
4585,1440.00
4586,2040.00
4587,2120.00
4588,1640.00
4589,800.00
4590,-360.00
4591,-1280.00
4592,-1960.00
4593,-2200.00
4594,-1800.00
4595,-1080.00
4596,40.00
4597,1080.00
4598,1800.00
4599,2200.00
4600,1920.00
4601,1320.00
4602,200.00
4603,-840.00
4604,-1600.00
4605,-2160.00
4606,-2040.00
4607,-1440.00
4608,-520.00
4609,560.00
4610,1440.00
4611,2040.00
4612,2120.00
4613,1640.00
4614,800.00
4615,-320.00
4616,-1280.00
4617,-1960.00
4618,-2200.00
4619,-1800.00
4620,-1040.00
4621,40.00
4622,1080.00
4623,1800.00
4624,2200.00
4625,1960.00
4626,1280.00
4627,200.00
4628,-840.00
4629,-1640.00
4630,-2160.00
4631,-2040.00
4632,-1440.00
4633,-520.00
4634,600.00
4635,1440.00
4636,2040.00
4637,2120.00
4638,1640.00
4639,800.00
4640,-320.00
4641,-1280.00
4642,-1920.00
4643,-2200.00
4644,-1800.00
4645,-1040.00
4646,40.00
4647,1080.00
4648,1800.00
4649,2200.00
4650,1960.00
4651,1320.00
4652,200.00
4653,-840.00
4654,-1600.00
4655,-2160.00
4656,-2040.00
4657,-1440.00
4658,-560.00
4659,560.00
4660,1440.00
4661,2040.00
4662,2120.00
4663,1680.00
4664,800.00
4665,-320.00
4666,-1280.00
4667,-1880.00
4668,-2160.00
4669,-1800.00
4670,-1040.00
4671,40.00
4672,1080.00
4673,1800.00
4674,2200.00
4675,1960.00
4676,1320.00
4677,200.00
4678,-840.00
4679,-1600.00
4680,-2160.00
4681,-2040.00
4682,-1440.00
4683,-560.00
4684,560.00
4685,1440.00
4686,2040.00
4687,2120.00
4688,1640.00
4689,800.00
4690,-320.00
4691,-1280.00
4692,-1920.00
4693,-2200.00
4694,-1800.00
4695,-1040.00
4696,40.00
4697,1080.00
4698,1800.00
4699,2200.00
4700,1960.00
4701,1320.00
4702,200.00
4703,-840.00
4704,-1640.00
4705,-2160.00
4706,-2040.00
4707,-1440.00
4708,-560.00
4709,600.00
4710,1440.00
4711,2040.00
4712,2120.00
4713,1640.00
4714,800.00
4715,-320.00
4716,-1280.00
4717,-1960.00
4718,-2200.00
4719,-1760.00
4720,-1040.00
4721,40.00
4722,1080.00
4723,1800.00
4724,2200.00
4725,1920.00
4726,1280.00
4727,200.00
4728,-840.00
4729,-1640.00
4730,-2160.00
4731,-2040.00
4732,-1440.00
4733,-520.00
4734,600.00
4735,1440.00
4736,2040.00
4737,2120.00
4738,1640.00
4739,800.00
4740,-320.00
4741,-1280.00
4742,-1920.00
4743,-2200.00
4744,-1800.00
4745,-1120.00
4746,40.00
4747,1080.00
4748,1800.00
4749,2200.00
4750,1920.00
4751,1320.00
4752,240.00
4753,-840.00
4754,-1640.00
4755,-2160.00
4756,-2040.00
4757,-1440.00
4758,-520.00
4759,600.00
4760,1440.00
4761,2040.00
4762,2120.00
4763,1640.00
4764,800.00
4765,-320.00
4766,-1280.00
4767,-1920.00
4768,-2200.00
4769,-1800.00
4770,-1040.00
4771,40.00
4772,1080.00
4773,1800.00
4774,2200.00
4775,1920.00
4776,1320.00
4777,200.00
4778,-840.00
4779,-1640.00
4780,-2120.00
4781,-2040.00
4782,-1440.00
4783,-560.00
4784,600.00
4785,1440.00
4786,2040.00
4787,2120.00
4788,1640.00
4789,800.00
4790,-320.00
4791,-1280.00
4792,-1960.00
4793,-2200.00
4794,-1800.00
4795,-1080.00
4796,40.00
4797,1080.00
4798,1800.00
4799,2160.00
4800,200.00
4801,-840.00
4802,-1640.00
4803,-2160.00
4804,-2040.00
4805,-1440.00
4806,-520.00
4807,600.00
4808,1480.00
4809,2080.00
4810,2120.00
4811,1640.00
4812,800.00
4813,-320.00
4814,-1280.00
4815,-1960.00
4816,-2200.00
4817,-1800.00
4818,-1040.00
4819,40.00
4820,1080.00
4821,1800.00
4822,2200.00
4823,1920.00
4824,1280.00
4825,200.00
4826,-840.00
4827,-1640.00
4828,-2160.00
4829,-2040.00
4830,-1440.00
4831,-520.00
4832,600.00
4833,1440.00
4834,2040.00
4835,2120.00
4836,1640.00
4837,800.00
4838,-320.00
4839,-1280.00
4840,-2000.00
4841,-2160.00
4842,-1760.00
4843,-1120.00
4844,40.00
4845,1080.00
4846,1800.00
4847,2200.00
4848,1920.00
4849,1320.00
4850,200.00
4851,-840.00
4852,-1640.00
4853,-2160.00
4854,-2040.00
4855,-1440.00
4856,-520.00
4857,600.00
4858,1440.00
4859,2040.00
4860,2120.00
4861,1640.00
4862,800.00
4863,-320.00
4864,-1280.00
4865,-1960.00
4866,-2200.00
4867,-1760.00
4868,-1080.00
4869,40.00
4870,1040.00
4871,1800.00
4872,2200.00
4873,1920.00
4874,1320.00
4875,200.00
4876,-840.00
4877,-1640.00
4878,-2160.00
4879,-2040.00
4880,-1440.00
4881,-560.00
4882,600.00
4883,1440.00
4884,2040.00
4885,2120.00
4886,1640.00
4887,800.00
4888,-320.00
4889,-1280.00
4890,-1960.00
4891,-2200.00
4892,-1760.00
4893,-1000.00
4894,40.00
4895,1080.00
4896,1800.00
4897,2200.00
4898,1920.00
4899,1280.00
4900,200.00
4901,-840.00
4902,-1640.00
4903,-2160.00
4904,-2040.00
4905,-1440.00
4906,-520.00
4907,600.00
4908,1440.00
4909,2040.00
4910,2120.00
4911,1640.00
4912,800.00
4913,-360.00
4914,-1280.00
4915,-2000.00
4916,-2200.00
4917,-1920.00
4918,-1760.00
4919,-1560.00
4920,-1440.00
4921,-1360.00
4922,-1280.00
4923,-1160.00
4924,-920.00
4925,-40.00
4926,920.00
4927,1760.00
4928,2200.00
4929,2120.00
4930,1480.00
4931,560.00
4932,-560.00
4933,-1440.00
4934,-2040.00
4935,-2120.00
4936,-1600.00
4937,-840.00
4938,320.00
4939,1320.00
4940,1960.00
4941,2160.00
4942,1840.00
4943,1760.00
4944,1520.00
4945,1440.00
4946,1360.00
4947,1280.00
4948,1200.00
4949,880.00
4950,40.00
4951,-920.00
4952,-1720.00
4953,-2160.00
4954,-2080.00
4955,-1480.00
4956,-520.00
4957,600.00
4958,1440.00
4959,2080.00
4960,2120.00
4961,1640.00
4962,800.00
4963,-360.00
4964,-1280.00
4965,-1960.00
4966,-2200.00
4967,-1800.00
4968,-1040.00
4969,40.00
4970,1080.00
4971,1800.00
4972,2200.00
4973,1920.00
4974,1280.00
4975,200.00
4976,-840.00
4977,-1640.00
4978,-2160.00
4979,-2040.00
4980,-1800.00
4981,-1640.00
4982,-1480.00
4983,-1400.00
4984,-1320.00
4985,-1200.00
4986,-1120.00
4987,-520.00
4988,480.00
4989,1360.00
4990,2040.00
4991,2240.00
4992,1920.00
4993,1760.00
4994,1560.00
4995,1440.00
4996,1360.00
4997,1280.00
4998,1200.00
4999,880.00
5000,40.00
5001,-920.00
5002,-1720.00
5003,-2160.00
5004,-2080.00
5005,-1800.00
5006,-1640.00
5007,-1520.00
5008,-1400.00
5009,-1320.00
5010,-1240.00
5011,-1080.00
5012,-520.00
5013,480.00
5014,1320.00
5015,2040.00
5016,2240.00
5017,1920.00
5018,1760.00
5019,1520.00
5020,1480.00
5021,1360.00
5022,1280.00
5023,1200.00
5024,880.00
5025,40.00
5026,-920.00
5027,-1720.00
5028,-2160.00
5029,-2120.00
5030,-1840.00
5031,-1640.00
5032,-1520.00
5033,-1440.00
5034,-1320.00
5035,-1200.00
5036,-1120.00
5037,-520.00
5038,480.00
5039,1360.00
5040,2040.00
5041,2200.00
5042,1920.00
5043,1760.00
5044,1520.00
5045,1480.00
5046,1360.00
5047,1280.00
5048,1200.00
5049,880.00
5050,40.00
5051,-920.00
5052,-1720.00
5053,-2160.00
5054,-2080.00
5055,-1840.00
5056,-1640.00
5057,-1520.00
5058,-1400.00
5059,-1320.00
5060,-1200.00
5061,-1080.00
5062,-520.00
5063,480.00
5064,1320.00
5065,2040.00
5066,2200.00
5067,1920.00
5068,1680.00
5069,1520.00
5070,1440.00
5071,1360.00
5072,1320.00
5073,1200.00
5074,920.00
5075,40.00
5076,-920.00
5077,-1720.00
5078,-2160.00
5079,-2080.00
5080,-1480.00
5081,-520.00
5082,560.00
5083,1440.00
5084,2080.00
5085,2120.00
5086,1640.00
5087,800.00
5088,-360.00
5089,-1280.00
5090,-2000.00
5091,-2200.00
5092,-1760.00
5093,-1040.00
5094,40.00
5095,1080.00
5096,1800.00
5097,2200.00
5098,1960.00
5099,1280.00
5100,200.00
5101,-840.00
5102,-1600.00
5103,-2160.00
5104,-2040.00
5105,-1440.00
5106,-520.00
5107,600.00
5108,1440.00
5109,2040.00
5110,2120.00
5111,1640.00
5112,800.00
5113,-360.00
5114,-1280.00
5115,-1920.00
5116,-2200.00
5117,-1800.00
5118,-1040.00
5119,40.00
5120,1080.00
5121,1800.00
5122,2200.00
5123,1920.00
5124,1280.00
5125,200.00
5126,-840.00
5127,-1640.00
5128,-2160.00
5129,-2040.00
5130,-1400.00
5131,-520.00
5132,600.00
5133,1440.00
5134,2040.00
5135,2120.00
5136,1640.00
5137,800.00
5138,-400.00
5139,-1280.00
5140,-1960.00
5141,-2200.00
5142,-1840.00
5143,-1760.00
5144,-1560.00
5145,-1440.00
5146,-1360.00
5147,-1280.00
5148,-1160.00
5149,-920.00
5150,-80.00
5151,920.00
5152,1760.00
5153,2200.00
5154,2080.00
5155,1440.00
5156,520.00
5157,-560.00
5158,-1440.00
5159,-2040.00
5160,-2120.00
5161,-1640.00
5162,-840.00
5163,360.00
5164,1320.00
5165,1960.00
5166,2200.00
5167,1880.00
5168,1760.00
5169,1520.00
5170,1440.00
5171,1360.00
5172,1280.00
5173,1200.00
5174,880.00
5175,40.00
5176,-920.00
5177,-1720.00
5178,-2160.00
5179,-2080.00
5180,-1800.00
5181,-1640.00
5182,-1480.00
5183,-1400.00
5184,-1320.00
5185,-1200.00
5186,-1080.00
5187,-520.00
5188,480.00
5189,1360.00
5190,2080.00
5191,2200.00
5192,1920.00
5193,1760.00
5194,1520.00
5195,1440.00
5196,1360.00
5197,1280.00
5198,1200.00
5199,880.00
5200,40.00
5201,-960.00
5202,-1720.00
5203,-2160.00
5204,-2080.00
5205,-1480.00
5206,-520.00
5207,600.00
5208,1480.00
5209,2080.00
5210,2120.00
5211,1640.00
5212,800.00
5213,-360.00
5214,-1280.00
5215,-2000.00
5216,-2160.00
5217,-1760.00
5218,-1040.00
5219,40.00
5220,1080.00
5221,1800.00
5222,2160.00
5223,1920.00
5224,1240.00
5225,200.00
5226,-840.00
5227,-1640.00
5228,-2160.00
5229,-2040.00
5230,-1800.00
5231,-1680.00
5232,-1480.00
5233,-1400.00
5234,-1320.00
5235,-1200.00
5236,-1080.00
5237,-520.00
5238,480.00
5239,1360.00
5240,2040.00
5241,2200.00
5242,1920.00
5243,1680.00
5244,1560.00
5245,1440.00
5246,1360.00
5247,1280.00
5248,1200.00
5249,880.00
5250,40.00
5251,-920.00
5252,-1720.00
5253,-2160.00
5254,-2080.00
5255,-1440.00
5256,-520.00
5257,600.00
5258,1480.00
5259,2080.00
5260,2120.00
5261,1640.00
5262,800.00
5263,-320.00
5264,-1280.00
5265,-1960.00
5266,-2200.00
5267,-1760.00
5268,-1040.00
5269,40.00
5270,1080.00
5271,1800.00
5272,2200.00
5273,1920.00
5274,1280.00
5275,200.00
5276,-840.00
5277,-1640.00
5278,-2160.00
5279,-2040.00
5280,-1440.00
5281,-560.00
5282,600.00
5283,1440.00
5284,2040.00
5285,2120.00
5286,1640.00
5287,800.00
5288,-320.00
5289,-1280.00
5290,-1960.00
5291,-2200.00
5292,-1800.00
5293,-1040.00
5294,40.00
5295,1040.00
5296,1800.00
5297,2160.00
5298,1920.00
5299,1240.00
5300,200.00
5301,-840.00
5302,-1640.00
5303,-2160.00
5304,-2040.00
5305,-1440.00
5306,-520.00
5307,600.00
5308,1440.00
5309,2040.00
5310,2120.00
5311,1640.00
5312,800.00
5313,-320.00
5314,-1240.00
5315,-1960.00
5316,-2160.00
5317,-1760.00
5318,-1040.00
5319,40.00
5320,1080.00
5321,1800.00
5322,2160.00
5323,1920.00
5324,1320.00
5325,200.00
5326,-840.00
5327,-1600.00
5328,-2160.00
5329,-2040.00
5330,-1440.00
5331,-560.00
5332,600.00
5333,1440.00
5334,2080.00
5335,2120.00
5336,1640.00
5337,800.00
5338,-320.00
5339,-1280.00
5340,-1960.00
5341,-2200.00
5342,-1800.00
5343,-1040.00
5344,40.00
5345,1080.00
5346,1800.00
5347,2200.00
5348,1920.00
5349,1320.00
5350,200.00
5351,-840.00
5352,-1640.00
5353,-2160.00
5354,-2040.00
5355,-1440.00
5356,-560.00
5357,600.00
5358,1440.00
5359,2040.00
5360,2120.00
5361,1640.00
5362,800.00
5363,-320.00
5364,-1280.00
5365,-1960.00
5366,-2200.00
5367,-1800.00
5368,-1040.00
5369,0.00
5370,1040.00
5371,1800.00
5372,2200.00
5373,1920.00
5374,1280.00
5375,200.00
5376,-840.00
5377,-1640.00
5378,-2160.00
5379,-2040.00
5380,-1440.00
5381,-520.00
5382,560.00
5383,1440.00
5384,2040.00
5385,2120.00
5386,1640.00
5387,800.00
5388,-320.00
5389,-1280.00
5390,-1920.00
5391,-2200.00
5392,-1800.00
5393,-1040.00
5394,40.00
5395,1080.00
5396,1800.00
5397,2200.00
5398,1920.00
5399,1320.00
5400,-1600.00
5401,-2160.00
5402,-2040.00
5403,-1440.00
5404,-560.00
5405,560.00
5406,1440.00
5407,2040.00
5408,2120.00
5409,1680.00
5410,800.00
5411,-320.00
5412,-1280.00
5413,-1960.00
5414,-2200.00
5415,-1800.00
5416,-1080.00
5417,0.00
5418,1080.00
5419,1800.00
5420,2160.00
5421,1920.00
5422,1320.00
5423,200.00
5424,-840.00
5425,-1640.00
5426,-2160.00
5427,-2040.00
5428,-1440.00
5429,-560.00
5430,600.00
5431,1440.00
5432,2040.00
5433,2120.00
5434,1640.00
5435,800.00
5436,-320.00
5437,-1280.00
5438,-1920.00
5439,-2200.00
5440,-1800.00
5441,-1040.00
5442,40.00
5443,1080.00
5444,1800.00
5445,2200.00
5446,1960.00
5447,1320.00
5448,200.00
5449,-840.00
5450,-1600.00
5451,-2160.00
5452,-2040.00
5453,-1440.00
5454,-560.00
5455,560.00
5456,1440.00
5457,2040.00
5458,2120.00
5459,1640.00
5460,800.00
5461,-320.00
5462,-1280.00
5463,-1920.00
5464,-2200.00
5465,-1800.00
5466,-1080.00
5467,40.00
5468,1080.00
5469,1800.00
5470,2200.00
5471,1920.00
5472,1320.00
5473,200.00
5474,-840.00
5475,-1600.00
5476,-2160.00
5477,-2040.00
5478,-1440.00
5479,-520.00
5480,560.00
5481,1440.00
5482,2040.00
5483,2120.00
5484,1640.00
5485,800.00
5486,-320.00
5487,-1280.00
5488,-1920.00
5489,-2200.00
5490,-1800.00
5491,-1040.00
5492,40.00
5493,1080.00
5494,1800.00
5495,2200.00
5496,1920.00
5497,1320.00
5498,200.00
5499,-840.00
5500,-1640.00
5501,-2160.00
5502,-2040.00
5503,-1440.00
5504,-560.00
5505,600.00
5506,1440.00
5507,2040.00
5508,2120.00
5509,1640.00
5510,800.00
5511,-320.00
5512,-1280.00
5513,-2000.00
5514,-2160.00
5515,-1800.00
5516,-1120.00
5517,40.00
5518,1080.00
5519,1800.00
5520,2200.00
5521,1920.00
5522,1320.00
5523,200.00
5524,-840.00
5525,-1640.00
5526,-2160.00
5527,-2040.00
5528,-1440.00
5529,-520.00
5530,560.00
5531,1440.00
5532,2040.00
5533,2120.00
5534,1640.00
5535,800.00
5536,-360.00
5537,-1280.00
5538,-1960.00
5539,-2200.00
5540,-1800.00
5541,-1080.00
5542,40.00
5543,1080.00
5544,1800.00
5545,2200.00
5546,1920.00
5547,1320.00
5548,200.00
5549,-840.00
5550,-1640.00
5551,-2160.00
5552,-2040.00
5553,-1440.00
5554,-520.00
5555,600.00
5556,1440.00
5557,2040.00
5558,2120.00
5559,1640.00
5560,800.00
5561,-320.00
5562,-1280.00
5563,-1960.00
5564,-2200.00
5565,-1760.00
5566,-1040.00
5567,40.00
5568,1080.00
5569,1800.00
5570,2200.00
5571,1960.00
5572,1280.00
5573,200.00
5574,-840.00
5575,-1640.00
5576,-2160.00
5577,-2040.00
5578,-1440.00
5579,-560.00
5580,560.00
5581,1440.00
5582,2040.00
5583,2120.00
5584,1640.00
5585,800.00
5586,-360.00
5587,-1280.00
5588,-1960.00
5589,-2200.00
5590,-1800.00
5591,-1040.00
5592,40.00
5593,1080.00
5594,1800.00
5595,2200.00
5596,1920.00
5597,1320.00
5598,200.00
5599,-840.00
5600,-1600.00
5601,-2160.00
5602,-2040.00
5603,-1440.00
5604,-520.00
5605,600.00
5606,1440.00
5607,2040.00
5608,2120.00
5609,1640.00
5610,800.00
5611,-320.00
5612,-1280.00
5613,-1960.00
5614,-2200.00
5615,-1800.00
5616,-1040.00
5617,40.00
5618,1080.00
5619,1800.00
5620,2200.00
5621,1920.00
5622,1320.00
5623,200.00
5624,-840.00
5625,-1640.00
5626,-2160.00
5627,-2040.00
5628,-1440.00
5629,-520.00
5630,600.00
5631,1440.00
5632,2080.00
5633,2120.00
5634,1640.00
5635,800.00
5636,-360.00
5637,-1280.00
5638,-1960.00
5639,-2200.00
5640,-1800.00
5641,-1040.00
5642,40.00
5643,1080.00
5644,1800.00
5645,2200.00
5646,1920.00
5647,1280.00
5648,200.00
5649,-840.00
5650,-1640.00
5651,-2160.00
5652,-2040.00
5653,-1440.00
5654,-520.00
5655,600.00
5656,1440.00
5657,2040.00
5658,2120.00
5659,1640.00
5660,800.00
5661,-360.00
5662,-1280.00
5663,-2000.00
5664,-2200.00
5665,-1800.00
5666,-1040.00
5667,40.00
5668,1080.00
5669,1800.00
5670,2160.00
5671,1920.00
5672,1280.00
5673,200.00
5674,-840.00
5675,-1640.00
5676,-2160.00
5677,-2040.00
5678,-1440.00
5679,-520.00
5680,600.00
5681,1440.00
5682,2080.00
5683,2120.00
5684,1640.00
5685,800.00
5686,-360.00
5687,-1280.00
5688,-1920.00
5689,-2200.00
5690,-1760.00
5691,-1040.00
5692,40.00
5693,1080.00
5694,1800.00
5695,2200.00
5696,1920.00
5697,1280.00
5698,200.00
5699,-840.00
5700,-1640.00
5701,-2160.00
5702,-2040.00
5703,-1440.00
5704,-520.00
5705,600.00
5706,1440.00
5707,2040.00
5708,2120.00
5709,1640.00
5710,800.00
5711,-360.00
5712,-1280.00
5713,-1960.00
5714,-2200.00
5715,-1800.00
5716,-1040.00
5717,40.00
5718,1080.00
5719,1800.00
5720,2200.00
5721,1920.00
5722,1280.00
5723,200.00
5724,-840.00
5725,-1640.00
5726,-2160.00
5727,-2000.00
5728,-1440.00
5729,-520.00
5730,600.00
5731,1440.00
5732,2080.00
5733,2120.00
5734,1640.00
5735,800.00
5736,-320.00
5737,-1280.00
5738,-1960.00
5739,-2200.00
5740,-1800.00
5741,-1040.00
5742,40.00
5743,1080.00
5744,1800.00
5745,2200.00
5746,1920.00
5747,1320.00
5748,200.00
5749,-840.00
5750,-1640.00
5751,-2160.00
5752,-2040.00
5753,-1440.00
5754,-520.00
5755,600.00
5756,1440.00
5757,2040.00
5758,2120.00
5759,1600.00
5760,800.00
5761,-320.00
5762,-1280.00
5763,-1960.00
5764,-2200.00
5765,-1800.00
5766,-1040.00
5767,40.00
5768,1080.00
5769,1800.00
5770,2200.00
5771,1920.00
5772,1280.00
5773,200.00
5774,-840.00
5775,-1640.00
5776,-2160.00
5777,-2040.00
5778,-1440.00
5779,-520.00
5780,600.00
5781,1440.00
5782,2040.00
5783,2120.00
5784,1640.00
5785,800.00
5786,-360.00
5787,-1280.00
5788,-1960.00
5789,-2160.00
5790,-1760.00
5791,-1040.00
5792,40.00
5793,1080.00
5794,1800.00
5795,2160.00
5796,1920.00
5797,1280.00
5798,200.00
5799,-840.00
5800,-1640.00
5801,-2160.00
5802,-2040.00
5803,-1440.00
5804,-520.00
5805,600.00
5806,1440.00
5807,2080.00
5808,2120.00
5809,1600.00
5810,800.00
5811,-320.00
5812,-1280.00
5813,-1960.00
5814,-2200.00
5815,-1800.00
5816,-1040.00
5817,40.00
5818,1080.00
5819,1800.00
5820,2200.00
5821,1920.00
5822,1280.00
5823,200.00
5824,-840.00
5825,-1640.00
5826,-2160.00
5827,-2040.00
5828,-1440.00
5829,-520.00
5830,600.00
5831,1440.00
5832,2040.00
5833,2120.00
5834,1640.00
5835,800.00
5836,-360.00
5837,-1280.00
5838,-2000.00
5839,-2160.00
5840,-1800.00
5841,-1000.00
5842,40.00
5843,1080.00
5844,1800.00
5845,2200.00
5846,1920.00
5847,1280.00
5848,200.00
5849,-840.00
5850,-1640.00
5851,-2160.00
5852,-2040.00
5853,-1440.00
5854,-520.00
5855,600.00
5856,1440.00
5857,2080.00
5858,2120.00
5859,1600.00
5860,800.00
5861,-360.00
5862,-1280.00
5863,-1960.00
5864,-2200.00
5865,-1800.00
5866,-1000.00
5867,40.00
5868,1080.00
5869,1800.00
5870,2200.00
5871,1920.00
5872,1280.00
5873,200.00
5874,-880.00
5875,-1640.00
5876,-2160.00
5877,-2040.00
5878,-1440.00
5879,-520.00
5880,600.00
5881,1440.00
5882,2040.00
5883,2120.00
5884,1600.00
5885,800.00
5886,-400.00
5887,-1280.00
5888,-1960.00
5889,-2200.00
5890,-1760.00
5891,-1000.00
5892,40.00
5893,1080.00
5894,1800.00
5895,2200.00
5896,1920.00
5897,1280.00
5898,200.00
5899,-880.00
5900,-1640.00
5901,-2160.00
5902,-2040.00
5903,-1440.00
5904,-520.00
5905,600.00
5906,1440.00
5907,2040.00
5908,2120.00
5909,1640.00
5910,800.00
5911,-360.00
5912,-1280.00
5913,-1960.00
5914,-2160.00
5915,-1760.00
5916,-1040.00
5917,40.00
5918,1080.00
5919,1800.00
5920,2160.00
5921,1920.00
5922,1240.00
5923,200.00
5924,-880.00
5925,-1640.00
5926,-2160.00
5927,-2040.00
5928,-1440.00
5929,-560.00
5930,600.00
5931,1440.00
5932,2040.00
5933,2120.00
5934,1640.00
5935,800.00
5936,-320.00
5937,-1280.00
5938,-1960.00
5939,-2160.00
5940,-1760.00
5941,-1040.00
5942,40.00
5943,1080.00
5944,1800.00
5945,2160.00
5946,1920.00
5947,1240.00
5948,200.00
5949,-840.00
5950,-1640.00
5951,-2160.00
5952,-2040.00
5953,-1440.00
5954,-520.00
5955,600.00
5956,1440.00
5957,2040.00
5958,2120.00
5959,1640.00
5960,800.00
5961,-360.00
5962,-1280.00
5963,-2000.00
5964,-2160.00
5965,-1760.00
5966,-1040.00
5967,40.00
5968,1080.00
5969,1800.00
5970,2160.00
5971,1920.00
5972,1280.00
5973,200.00
5974,-840.00
5975,-1640.00
5976,-2160.00
5977,-2040.00
5978,-1440.00
5979,-520.00
5980,600.00
5981,1440.00
5982,2040.00
5983,2120.00
5984,1640.00
5985,800.00
5986,-360.00
5987,-1280.00
5988,-2000.00
5989,-2200.00
5990,-1800.00
5991,-1040.00
5992,40.00
5993,1080.00
5994,1800.00
5995,2200.00
5996,1920.00
5997,1320.00
5998,200.00
5999,-840.00
6000,-2000.00
6001,-1440.00
6002,-520.00
6003,600.00
6004,1440.00
6005,2080.00
6006,2120.00
6007,1640.00
6008,800.00
6009,-320.00
6010,-1280.00
6011,-1960.00
6012,-2200.00
6013,-1800.00
6014,-1040.00
6015,40.00
6016,1080.00
6017,1800.00
6018,2200.00
6019,1920.00
6020,1320.00
6021,200.00
6022,-840.00
6023,-1640.00
6024,-2160.00
6025,-2040.00
6026,-1440.00
6027,-520.00
6028,600.00
6029,1440.00
6030,2040.00
6031,2120.00
6032,1640.00
6033,800.00
6034,-360.00
6035,-1280.00
6036,-1960.00
6037,-2200.00
6038,-1760.00
6039,-1040.00
6040,40.00
6041,1080.00
6042,1800.00
6043,2200.00
6044,1920.00
6045,1320.00
6046,200.00
6047,-840.00
6048,-1640.00
6049,-2160.00
6050,-2040.00
6051,-1440.00
6052,-520.00
6053,600.00
6054,1440.00
6055,2040.00
6056,2120.00
6057,1640.00
6058,800.00
6059,-320.00
6060,-1280.00
6061,-1880.00
6062,-2200.00
6063,-1800.00
6064,-1040.00
6065,40.00
6066,1080.00
6067,1800.00
6068,2200.00
6069,1920.00
6070,1320.00
6071,200.00
6072,-840.00
6073,-1640.00
6074,-2160.00
6075,-2040.00
6076,-1440.00
6077,-520.00
6078,600.00
6079,1440.00
6080,2080.00
6081,2120.00
6082,1640.00
6083,800.00
6084,-360.00
6085,-1280.00
6086,-1960.00
6087,-2200.00
6088,-1760.00
6089,-1080.00
6090,40.00
6091,1080.00
6092,1800.00
6093,2200.00
6094,1920.00
6095,1280.00
6096,200.00
6097,-840.00
6098,-1640.00
6099,-2160.00
6100,-2040.00
6101,-1440.00
6102,-560.00
6103,600.00
6104,1440.00
6105,2040.00
6106,2120.00
6107,1640.00
6108,800.00
6109,-320.00
6110,-1280.00
6111,-2000.00
6112,-2160.00
6113,-1760.00
6114,-1040.00
6115,40.00
6116,1080.00
6117,1800.00
6118,2200.00
6119,1960.00
6120,1280.00
6121,200.00
6122,-840.00
6123,-1640.00
6124,-2160.00
6125,-2040.00
6126,-1440.00
6127,-560.00
6128,600.00
6129,1440.00
6130,2040.00
6131,2120.00
6132,1640.00
6133,800.00
6134,-320.00
6135,-1280.00
6136,-1960.00
6137,-2160.00
6138,-1800.00
6139,-1040.00
6140,40.00
6141,1080.00
6142,1800.00
6143,2200.00
6144,1920.00
6145,1280.00
6146,200.00
6147,-840.00
6148,-1640.00
6149,-2160.00
6150,-2040.00
6151,-1440.00
6152,-520.00
6153,600.00
6154,1440.00
6155,2040.00
6156,2120.00
6157,1640.00
6158,800.00
6159,-320.00
6160,-1280.00
6161,-1960.00
6162,-2200.00
6163,-1800.00
6164,-1040.00
6165,40.00
6166,1080.00
6167,1800.00
6168,2200.00
6169,1960.00
6170,1280.00
6171,200.00
6172,-840.00
6173,-1640.00
6174,-2160.00
6175,-2040.00
6176,-1440.00
6177,-520.00
6178,600.00
6179,1440.00
6180,2040.00
6181,2120.00
6182,1640.00
6183,800.00
6184,-320.00
6185,-1280.00
6186,-1920.00
6187,-2200.00
6188,-1800.00
6189,-1040.00
6190,40.00
6191,1080.00
6192,1840.00
6193,2200.00
6194,1920.00
6195,1320.00
6196,200.00
6197,-840.00
6198,-1640.00
6199,-2160.00
6200,-2000.00
6201,-1440.00
6202,-520.00
6203,600.00
6204,1440.00
6205,2040.00
6206,2120.00
6207,1640.00
6208,800.00
6209,-360.00
6210,-1280.00
6211,-1960.00
6212,-2200.00
6213,-1800.00
6214,-1080.00
6215,40.00
6216,1080.00
6217,1800.00
6218,2200.00
6219,1920.00
6220,1320.00
6221,200.00
6222,-840.00
6223,-1640.00
6224,-2160.00
6225,-2040.00
6226,-1440.00
6227,-560.00
6228,600.00
6229,1440.00
6230,2040.00
6231,2120.00
6232,1640.00
6233,800.00
6234,-320.00
6235,-1280.00
6236,-1920.00
6237,-2200.00
6238,-1800.00
6239,-1040.00
6240,40.00
6241,1080.00
6242,1800.00
6243,2200.00
6244,1920.00
6245,1280.00
6246,200.00
6247,-840.00
6248,-1640.00
6249,-2160.00
6250,-2040.00
6251,-1440.00
6252,-560.00
6253,560.00
6254,1440.00
6255,2040.00
6256,2120.00
6257,1640.00
6258,800.00
6259,-320.00
6260,-1280.00
6261,-2000.00
6262,-2200.00
6263,-1760.00
6264,-1040.00
6265,40.00
6266,1080.00
6267,1800.00
6268,2200.00
6269,1920.00
6270,1320.00
6271,200.00
6272,-840.00
6273,-1600.00
6274,-2160.00
6275,-2040.00
6276,-1440.00
6277,-520.00
6278,600.00
6279,1440.00
6280,2040.00
6281,2120.00
6282,1640.00
6283,800.00
6284,-320.00
6285,-1280.00
6286,-1960.00
6287,-2200.00
6288,-1760.00
6289,-1040.00
6290,40.00
6291,1080.00
6292,1800.00
6293,2200.00
6294,1920.00
6295,1280.00
6296,200.00
6297,-880.00
6298,-1640.00
6299,-2160.00
6300,-2040.00
6301,-1440.00
6302,-520.00
6303,600.00
6304,1440.00
6305,2040.00
6306,2120.00
6307,1640.00
6308,800.00
6309,-320.00
6310,-1280.00
6311,-1920.00
6312,-2200.00
6313,-1800.00
6314,-1040.00
6315,40.00
6316,1080.00
6317,1800.00
6318,2200.00
6319,1920.00
6320,1280.00
6321,200.00
6322,-840.00
6323,-1640.00
6324,-2160.00
6325,-2040.00
6326,-1440.00
6327,-520.00
6328,600.00
6329,1440.00
6330,2040.00
6331,2120.00
6332,1640.00
6333,800.00
6334,-360.00
6335,-1280.00
6336,-1960.00
6337,-2160.00
6338,-1800.00
6339,-1040.00
6340,40.00
6341,1080.00
6342,1800.00
6343,2200.00
6344,1920.00
6345,1320.00
6346,200.00
6347,-840.00
6348,-1600.00
6349,-2160.00
6350,-2040.00
6351,-1440.00
6352,-520.00
6353,600.00
6354,1480.00
6355,2080.00
6356,2120.00
6357,1640.00
6358,800.00
6359,-360.00
6360,-1280.00
6361,-1920.00
6362,-2200.00
6363,-1760.00
6364,-1040.00
6365,40.00
6366,1080.00
6367,1800.00
6368,2200.00
6369,1920.00
6370,1280.00
6371,200.00
6372,-880.00
6373,-1640.00
6374,-2160.00
6375,-2040.00
6376,-1440.00
6377,-520.00
6378,600.00
6379,1480.00
6380,2080.00
6381,2120.00
6382,1640.00
6383,800.00
6384,-360.00
6385,-1280.00
6386,-1960.00
6387,-2160.00
6388,-1800.00
6389,-1040.00
6390,40.00
6391,1080.00
6392,1800.00
6393,2200.00
6394,1920.00
6395,1280.00
6396,200.00
6397,-840.00
6398,-1640.00
6399,-2160.00
6400,-2000.00
6401,-1440.00
6402,-520.00
6403,600.00
6404,1440.00
6405,2080.00
6406,2120.00
6407,1640.00
6408,800.00
6409,-360.00
6410,-1280.00
6411,-1960.00
6412,-2200.00
6413,-1800.00
6414,-1040.00
6415,40.00
6416,1080.00
6417,1800.00
6418,2200.00
6419,1960.00
6420,1280.00
6421,200.00
6422,-880.00
6423,-1680.00
6424,-2160.00
6425,-2040.00
6426,-1400.00
6427,-560.00
6428,600.00
6429,1440.00
6430,2080.00
6431,2120.00
6432,1640.00
6433,800.00
6434,-320.00
6435,-1280.00
6436,-1920.00
6437,-2200.00
6438,-1760.00
6439,-1040.00
6440,40.00
6441,1080.00
6442,1800.00
6443,2200.00
6444,1920.00
6445,1280.00
6446,200.00
6447,-840.00
6448,-1640.00
6449,-2160.00
6450,-2040.00
6451,-1440.00
6452,-520.00
6453,600.00
6454,1440.00
6455,2040.00
6456,2120.00
6457,1600.00
6458,800.00
6459,-360.00
6460,-1280.00
6461,-1960.00
6462,-2200.00
6463,-1800.00
6464,-1040.00
6465,40.00
6466,1080.00
6467,1800.00
6468,2200.00
6469,1920.00
6470,1240.00
6471,200.00
6472,-840.00
6473,-1640.00
6474,-2160.00
6475,-2040.00
6476,-1440.00
6477,-520.00
6478,600.00
6479,1440.00
6480,2040.00
6481,2120.00
6482,1640.00
6483,800.00
6484,-360.00
6485,-1280.00
6486,-1960.00
6487,-2200.00
6488,-1760.00
6489,-1040.00
6490,40.00
6491,1080.00
6492,1800.00
6493,2200.00
6494,1920.00
6495,1280.00
6496,200.00
6497,-840.00
6498,-1640.00
6499,-2160.00
6500,-2040.00
6501,-1440.00
6502,-560.00
6503,600.00
6504,1440.00
6505,2040.00
6506,2120.00
6507,1640.00
6508,800.00
6509,-360.00
6510,-1280.00
6511,-1960.00
6512,-2200.00
6513,-1760.00
6514,-1040.00
6515,40.00
6516,1080.00
6517,1840.00
6518,2200.00
6519,1920.00
6520,1320.00
6521,200.00
6522,-840.00
6523,-1640.00
6524,-2160.00
6525,-2040.00
6526,-1440.00
6527,-520.00
6528,600.00
6529,1480.00
6530,2040.00
6531,2120.00
6532,1640.00
6533,800.00
6534,-360.00
6535,-1280.00
6536,-2000.00
6537,-2160.00
6538,-1760.00
6539,-1040.00
6540,40.00
6541,1080.00
6542,1800.00
6543,2160.00
6544,1920.00
6545,1280.00
6546,200.00
6547,-880.00
6548,-1640.00
6549,-2160.00
6550,-2040.00
6551,-1440.00
6552,-520.00
6553,600.00
6554,1440.00
6555,2040.00
6556,2120.00
6557,1600.00
6558,800.00
6559,-320.00
6560,-1280.00
6561,-1960.00
6562,-2200.00
6563,-1760.00
6564,-1000.00
6565,40.00
6566,1080.00
6567,1800.00
6568,2200.00
6569,1920.00
6570,1280.00
6571,200.00
6572,-880.00
6573,-1600.00
6574,-2160.00
6575,-2040.00
6576,-1400.00
6577,-520.00
6578,600.00
6579,1440.00
6580,2040.00
6581,2120.00
6582,1640.00
6583,800.00
6584,-400.00
6585,-1280.00
6586,-1960.00
6587,-2200.00
6588,-1760.00
6589,-1080.00
6590,40.00
6591,1080.00
6592,1800.00
6593,2200.00
6594,1920.00
6595,1280.00
6596,200.00
6597,-840.00
6598,-1640.00
6599,-2160.00
6600,-520.00
6601,600.00
6602,1480.00
6603,2080.00
6604,2120.00
6605,1640.00
6606,800.00
6607,-360.00
6608,-1280.00
6609,-1960.00
6610,-2200.00
6611,-1760.00
6612,-1000.00
6613,40.00
6614,1080.00
6615,1800.00
6616,2120.00
6617,1920.00
6618,1320.00
6619,200.00
6620,-880.00
6621,-1640.00
6622,-2160.00
6623,-2040.00
6624,-1440.00
6625,-520.00
6626,600.00
6627,1440.00
6628,2040.00
6629,2120.00
6630,1640.00
6631,800.00
6632,-360.00
6633,-1280.00
6634,-1960.00
6635,-2200.00
6636,-1760.00
6637,-1040.00
6638,40.00
6639,1080.00
6640,1800.00
6641,2200.00
6642,1920.00
6643,1320.00
6644,200.00
6645,-840.00
6646,-1640.00
6647,-2160.00
6648,-2040.00
6649,-1440.00
6650,-520.00
6651,600.00
6652,1440.00
6653,2040.00
6654,2120.00
6655,1640.00
6656,800.00
6657,-360.00
6658,-1280.00
6659,-1960.00
6660,-2200.00
6661,-1760.00
6662,-1040.00
6663,40.00
6664,1080.00
6665,1800.00
6666,2200.00
6667,1920.00
6668,1320.00
6669,200.00
6670,-840.00
6671,-1640.00
6672,-2160.00
6673,-2040.00
6674,-1440.00
6675,-520.00
6676,600.00
6677,1440.00
6678,2040.00
6679,2120.00
6680,1600.00
6681,800.00
6682,-360.00
6683,-1280.00
6684,-1960.00
6685,-2200.00
6686,-1800.00
6687,-1040.00
6688,40.00
6689,1080.00
6690,1800.00
6691,2200.00
6692,1960.00
6693,1280.00
6694,200.00
6695,-840.00
6696,-1640.00
6697,-2160.00
6698,-2040.00
6699,-1440.00
6700,-520.00
6701,600.00
6702,1440.00
6703,2080.00
6704,2120.00
6705,1640.00
6706,800.00
6707,-360.00
6708,-1280.00
6709,-1960.00
6710,-2160.00
6711,-1800.00
6712,-1040.00
6713,40.00
6714,1080.00
6715,1800.00
6716,2200.00
6717,1920.00
6718,1280.00
6719,200.00
6720,-840.00
6721,-1600.00
6722,-2160.00
6723,-2040.00
6724,-1440.00
6725,-520.00
6726,600.00
6727,1440.00
6728,2040.00
6729,2120.00
6730,1640.00
6731,800.00
6732,-320.00
6733,-1280.00
6734,-1960.00
6735,-2200.00
6736,-1760.00
6737,-1040.00
6738,40.00
6739,1080.00
6740,1800.00
6741,2200.00
6742,1920.00
6743,1280.00
6744,200.00
6745,-840.00
6746,-1600.00
6747,-2160.00
6748,-2040.00
6749,-1440.00
6750,-520.00
6751,600.00
6752,1440.00
6753,2040.00
6754,2120.00
6755,1640.00
6756,800.00
6757,-320.00
6758,-1280.00
6759,-1920.00
6760,-2200.00
6761,-1760.00
6762,-1040.00
6763,40.00
6764,1080.00
6765,1800.00
6766,2200.00
6767,1920.00
6768,1280.00
6769,200.00
6770,-840.00
6771,-1600.00
6772,-2160.00
6773,-2040.00
6774,-1440.00
6775,-520.00
6776,600.00
6777,1440.00
6778,2040.00
6779,2120.00
6780,1640.00
6781,800.00
6782,-320.00
6783,-1280.00
6784,-1960.00
6785,-2200.00
6786,-1800.00
6787,-1040.00
6788,40.00
6789,1080.00
6790,1800.00
6791,2200.00
6792,1920.00
6793,1280.00
6794,200.00
6795,-880.00
6796,-1640.00
6797,-2160.00
6798,-2000.00
6799,-1440.00
6800,-560.00
6801,600.00
6802,1440.00
6803,2040.00
6804,2120.00
6805,1640.00
6806,800.00
6807,-320.00
6808,-1280.00
6809,-1960.00
6810,-2200.00
6811,-1760.00
6812,-1040.00
6813,40.00
6814,1080.00
6815,1800.00
6816,2200.00
6817,1960.00
6818,1320.00
6819,200.00
6820,-840.00
6821,-1640.00
6822,-2160.00
6823,-2040.00
6824,-1440.00
6825,-520.00
6826,600.00
6827,1440.00
6828,2080.00
6829,2120.00
6830,1640.00
6831,800.00
6832,-320.00
6833,-1280.00
6834,-1920.00
6835,-2200.00
6836,-1760.00
6837,-1040.00
6838,40.00
6839,1080.00
6840,1800.00
6841,2200.00
6842,1920.00
6843,1280.00
6844,200.00
6845,-840.00
6846,-1600.00
6847,-2160.00
6848,-2040.00
6849,-1440.00
6850,-520.00
6851,600.00
6852,1440.00
6853,2040.00
6854,2120.00
6855,1640.00
6856,800.00
6857,-320.00
6858,-1280.00
6859,-1880.00
6860,-2200.00
6861,-1800.00
6862,-1000.00
6863,40.00
6864,1080.00
6865,1800.00
6866,2200.00
6867,1920.00
6868,1320.00
6869,200.00
6870,-840.00
6871,-1640.00
6872,-2160.00
6873,-2040.00
6874,-1440.00
6875,-520.00
6876,600.00
6877,1440.00
6878,2040.00
6879,2120.00
6880,1640.00
6881,800.00
6882,-320.00
6883,-1280.00
6884,-1920.00
6885,-2200.00
6886,-1760.00
6887,-1000.00
6888,40.00
6889,1080.00
6890,1800.00
6891,2200.00
6892,1960.00
6893,1320.00
6894,200.00
6895,-840.00
6896,-1640.00
6897,-2160.00
6898,-2040.00
6899,-1440.00
6900,-520.00
6901,600.00
6902,1480.00
6903,2040.00
6904,2120.00
6905,1640.00
6906,800.00
6907,-320.00
6908,-1280.00
6909,-1920.00
6910,-2200.00
6911,-1760.00
6912,-1000.00
6913,40.00
6914,1080.00
6915,1800.00
6916,2200.00
6917,1920.00
6918,1320.00
6919,200.00
6920,-840.00
6921,-1600.00
6922,-2160.00
6923,-2040.00
6924,-1440.00
6925,-520.00
6926,560.00
6927,1440.00
6928,2080.00
6929,2120.00
6930,1640.00
6931,800.00
6932,-320.00
6933,-1280.00
6934,-1920.00
6935,-2200.00
6936,-1760.00
6937,-1000.00
6938,40.00
6939,1080.00
6940,1800.00
6941,2200.00
6942,1920.00
6943,1320.00
6944,200.00
6945,-840.00
6946,-1640.00
6947,-2160.00
6948,-2040.00
6949,-1440.00
6950,-520.00
6951,600.00
6952,1440.00
6953,2040.00
6954,2120.00
6955,1600.00
6956,800.00
6957,-320.00
6958,-1280.00
6959,-1960.00
6960,-2200.00
6961,-1800.00
6962,-1040.00
6963,40.00
6964,1080.00
6965,1800.00
6966,2200.00
6967,1920.00
6968,1280.00
6969,200.00
6970,-840.00
6971,-1640.00
6972,-2160.00
6973,-2040.00
6974,-1440.00
6975,-520.00
6976,600.00
6977,1440.00
6978,2040.00
6979,2120.00
6980,1640.00
6981,800.00
6982,-360.00
6983,-1280.00
6984,-2000.00
6985,-2200.00
6986,-1760.00
6987,-1040.00
6988,40.00
6989,1080.00
6990,1800.00
6991,2200.00
6992,1920.00
6993,1280.00
6994,200.00
6995,-840.00
6996,-1640.00
6997,-2160.00
6998,-2040.00
6999,-1440.00
7000,-520.00
7001,600.00
7002,1440.00
7003,2080.00
7004,2120.00
7005,1640.00
7006,800.00
7007,-360.00
7008,-1280.00
7009,-1960.00
7010,-2200.00
7011,-1760.00
7012,-1080.00
7013,40.00
7014,1080.00
7015,1800.00
7016,2200.00
7017,1920.00
7018,1320.00
7019,200.00
7020,-840.00
7021,-1640.00
7022,-2160.00
7023,-2000.00
7024,-1440.00
7025,-520.00
7026,600.00
7027,1440.00
7028,2080.00
7029,2120.00
7030,1640.00
7031,800.00
7032,-320.00
7033,-1280.00
7034,-1920.00
7035,-2200.00
7036,-1840.00
7037,-1760.00
7038,-1560.00
7039,-1440.00
7040,-1360.00
7041,-1280.00
7042,-1160.00
7043,-920.00
7044,-80.00
7045,920.00
7046,1760.00
7047,2200.00
7048,2120.00
7049,1440.00
7050,560.00
7051,-560.00
7052,-1440.00
7053,-2040.00
7054,-2080.00
7055,-1600.00
7056,-840.00
7057,360.00
7058,1320.00
7059,1960.00
7060,2120.00
7061,1920.00
7062,1760.00
7063,1520.00
7064,1480.00
7065,1400.00
7066,1280.00
7067,1200.00
7068,920.00
7069,40.00
7070,-920.00
7071,-1720.00
7072,-2160.00
7073,-2080.00
7074,-1800.00
7075,-1600.00
7076,-1520.00
7077,-1400.00
7078,-1280.00
7079,-1200.00
7080,-1080.00
7081,-520.00
7082,480.00
7083,1360.00
7084,2040.00
7085,2200.00
7086,1920.00
7087,1760.00
7088,1560.00
7089,1440.00
7090,1360.00
7091,1320.00
7092,1200.00
7093,880.00
7094,40.00
7095,-920.00
7096,-1720.00
7097,-2160.00
7098,-2080.00
7099,-1480.00
7100,-520.00
7101,600.00
7102,1480.00
7103,2040.00
7104,2120.00
7105,1640.00
7106,800.00
7107,-360.00
7108,-1280.00
7109,-1960.00
7110,-2200.00
7111,-1840.00
7112,-1760.00
7113,-1560.00
7114,-1440.00
7115,-1360.00
7116,-1280.00
7117,-1160.00
7118,-920.00
7119,-40.00
7120,920.00
7121,1760.00
7122,2200.00
7123,2120.00
7124,1440.00
7125,560.00
7126,-560.00
7127,-1440.00
7128,-2080.00
7129,-2080.00
7130,-1600.00
7131,-840.00
7132,360.00
7133,1320.00
7134,1960.00
7135,2120.00
7136,1760.00
7137,1040.00
7138,-40.00
7139,-1080.00
7140,-1800.00
7141,-2160.00
7142,-1880.00
7143,-1280.00
7144,-200.00
7145,880.00
7146,1680.00
7147,2120.00
7148,2080.00
7149,1480.00
7150,520.00
7151,-600.00
7152,-1440.00
7153,-2080.00
7154,-2120.00
7155,-1600.00
7156,-840.00
7157,320.00
7158,1320.00
7159,1960.00
7160,2200.00
7161,1760.00
7162,1080.00
7163,-80.00
7164,-1040.00
7165,-1800.00
7166,-2160.00
7167,-1920.00
7168,-1280.00
7169,-160.00
7170,880.00
7171,1640.00
7172,2120.00
7173,2040.00
7174,1440.00
7175,520.00
7176,-560.00
7177,-1440.00
7178,-2040.00
7179,-2080.00
7180,-1600.00
7181,-840.00
7182,360.00
7183,1320.00
7184,1960.00
7185,2160.00
7186,1760.00
7187,1080.00
7188,-40.00
7189,-1000.00
7190,-1800.00
7191,-2160.00
7192,-1960.00
7193,-1280.00
7194,-240.00
7195,880.00
7196,1640.00
7197,2120.00
7198,2080.00
7199,1480.00
7200,-1440.00
7201,-2040.00
7202,-2080.00
7203,-1600.00
7204,-840.00
7205,320.00
7206,1320.00
7207,1960.00
7208,2160.00
7209,1760.00
7210,1080.00
7211,-40.00
7212,-1000.00
7213,-1800.00
7214,-2160.00
7215,-1920.00
7216,-1280.00
7217,-200.00
7218,880.00
7219,1640.00
7220,2120.00
7221,2080.00
7222,1800.00
7223,1640.00
7224,1480.00
7225,1400.00
7226,1320.00
7227,1240.00
7228,1080.00
7229,560.00
7230,-440.00
7231,-1320.00
7232,-2000.00
7233,-2200.00
7234,-1800.00
7235,-1080.00
7236,40.00
7237,1080.00
7238,1800.00
7239,2200.00
7240,1920.00
7241,1320.00
7242,200.00
7243,-840.00
7244,-1640.00
7245,-2160.00
7246,-2040.00
7247,-1800.00
7248,-1640.00
7249,-1480.00
7250,-1400.00
7251,-1320.00
7252,-1200.00
7253,-1080.00
7254,-520.00
7255,440.00
7256,1360.00
7257,2040.00
7258,2200.00
7259,1920.00
7260,1760.00
7261,1520.00
7262,1440.00
7263,1360.00
7264,1280.00
7265,1200.00
7266,920.00
7267,40.00
7268,-920.00
7269,-1720.00
7270,-2160.00
7271,-2080.00
7272,-1440.00
7273,-520.00
7274,560.00
7275,1480.00
7276,2080.00
7277,2120.00
7278,1640.00
7279,800.00
7280,-320.00
7281,-1280.00
7282,-1880.00
7283,-2160.00
7284,-1880.00
7285,-1760.00
7286,-1560.00
7287,-1440.00
7288,-1360.00
7289,-1280.00
7290,-1160.00
7291,-920.00
7292,-80.00
7293,880.00
7294,1760.00
7295,2200.00
7296,2080.00
7297,1480.00
7298,560.00
7299,-560.00
7300,-1440.00
7301,-2040.00
7302,-2080.00
7303,-1600.00
7304,-880.00
7305,320.00
7306,1280.00
7307,1960.00
7308,2120.00
7309,1760.00
7310,1040.00
7311,-40.00
7312,-1000.00
7313,-1800.00
7314,-2200.00
7315,-1880.00
7316,-1280.00
7317,-200.00
7318,840.00
7319,1680.00
7320,2120.00
7321,2040.00
7322,1480.00
7323,560.00
7324,-600.00
7325,-1440.00
7326,-2040.00
7327,-2120.00
7328,-1600.00
7329,-840.00
7330,320.00
7331,1320.00
7332,1960.00
7333,2200.00
7334,1760.00
7335,1080.00
7336,-40.00
7337,-1000.00
7338,-1800.00
7339,-2160.00
7340,-1920.00
7341,-1280.00
7342,-200.00
7343,880.00
7344,1640.00
7345,2120.00
7346,2040.00
7347,1480.00
7348,560.00
7349,-560.00
7350,-1440.00
7351,-2040.00
7352,-2080.00
7353,-1600.00
7354,-840.00
7355,320.00
7356,1320.00
7357,1960.00
7358,2160.00
7359,1880.00
7360,1760.00
7361,1520.00
7362,1440.00
7363,1360.00
7364,1280.00
7365,1200.00
7366,880.00
7367,40.00
7368,-920.00
7369,-1720.00
7370,-2160.00
7371,-2120.00
7372,-1800.00
7373,-1640.00
7374,-1520.00
7375,-1400.00
7376,-1320.00
7377,-1200.00
7378,-1080.00
7379,-520.00
7380,480.00
7381,1320.00
7382,2040.00
7383,2200.00
7384,1920.00
7385,1760.00
7386,1520.00
7387,1440.00
7388,1360.00
7389,1280.00
7390,1200.00
7391,920.00
7392,40.00
7393,-920.00
7394,-1720.00
7395,-2160.00
7396,-2120.00
7397,-1800.00
7398,-1600.00
7399,-1520.00
7400,-1400.00
7401,-1320.00
7402,-1200.00
7403,-1080.00
7404,-520.00
7405,480.00
7406,1360.00
7407,2040.00
7408,2200.00
7409,1800.00
7410,1080.00
7411,0.00
7412,-1000.00
7413,-1800.00
7414,-2160.00
7415,-1960.00
7416,-1280.00
7417,-240.00
7418,880.00
7419,1640.00
7420,2120.00
7421,2080.00
7422,1840.00
7423,1640.00
7424,1480.00
7425,1440.00
7426,1320.00
7427,1240.00
7428,1120.00
7429,560.00
7430,-400.00
7431,-1320.00
7432,-2000.00
7433,-2200.00
7434,-1800.00
7435,-1120.00
7436,40.00
7437,1080.00
7438,1800.00
7439,2200.00
7440,1960.00
7441,1680.00
7442,1480.00
7443,1480.00
7444,1440.00
7445,1400.00
7446,1440.00
7447,1440.00
7448,1440.00
7449,1440.00
7450,1400.00
7451,1400.00
7452,1440.00
7453,1400.00
7454,1440.00
7455,1360.00
7456,1400.00
7457,1360.00
7458,1360.00
7459,1360.00
7460,1400.00
7461,1360.00
7462,1400.00
7463,1400.00
7464,1400.00
7465,1360.00
7466,1400.00
7467,1360.00
7468,1400.00
7469,1440.00
7470,1400.00
7471,1400.00
7472,1400.00
7473,1360.00
7474,1360.00
7475,1320.00
7476,1360.00
7477,1400.00
7478,1360.00
7479,1360.00
7480,1360.00
7481,1360.00
7482,1360.00
7483,1360.00
7484,1400.00
7485,1360.00
7486,1200.00
7487,760.00
7488,280.00
7489,40.00
7490,0.00
7491,0.00
7492,-80.00
7493,-80.00
7494,-80.00
7495,-80.00
7496,-40.00
7497,-80.00
7498,-40.00
7499,-40.00
7500,-40.00
7501,-40.00
7502,0.00
7503,-40.00
7504,0.00
7505,-40.00
7506,0.00
7507,-80.00
7508,-80.00
7509,-80.00
7510,-80.00
7511,-80.00
7512,-80.00
7513,-40.00
7514,0.00
7515,-40.00
7516,-40.00
7517,-40.00
7518,-40.00
7519,-80.00
7520,-80.00
7521,-40.00
7522,-40.00
7523,0.00
7524,0.00
7525,0.00
7526,-40.00
7527,0.00
7528,-80.00
7529,0.00
7530,-40.00
7531,-80.00
7532,-80.00
7533,-80.00
7534,-40.00
7535,-80.00
7536,0.00
7537,-40.00
7538,0.00
7539,-40.00
7540,0.00
7541,-40.00
7542,-120.00
7543,-80.00
7544,-80.00
7545,-80.00
7546,-80.00
7547,0.00
7548,-40.00
7549,0.00
7550,-40.00
7551,-40.00
7552,-80.00
7553,-80.00
7554,-40.00
7555,-80.00
7556,0.00
7557,0.00
7558,0.00
7559,-40.00
7560,0.00
7561,-40.00
7562,0.00
7563,0.00
7564,-80.00
7565,-40.00
7566,-80.00
7567,-40.00
7568,0.00
7569,-80.00
7570,-40.00
7571,0.00
7572,0.00
7573,-40.00
7574,-80.00
7575,-40.00
7576,-40.00
7577,-40.00
7578,-80.00
7579,0.00
7580,-40.00
7581,0.00
7582,0.00
7583,0.00
7584,-80.00
7585,-80.00
7586,-40.00
7587,-40.00
7588,0.00
7589,-80.00
7590,0.00
7591,0.00
7592,0.00
7593,-40.00
7594,-80.00
7595,-80.00
7596,0.00
7597,-40.00
7598,-80.00
7599,0.00
7600,0.00
7601,-40.00
7602,-80.00
7603,0.00
7604,-40.00
7605,0.00
7606,-80.00
7607,0.00
7608,-40.00
7609,-80.00
7610,-40.00
7611,-80.00
7612,-80.00
7613,-80.00
7614,0.00
7615,-40.00
7616,0.00
7617,0.00
7618,-40.00
7619,-40.00
7620,-80.00
7621,-40.00
7622,0.00
7623,-80.00
7624,0.00
7625,0.00
7626,-40.00
7627,-40.00
7628,-80.00
7629,-40.00
7630,0.00
7631,-80.00
7632,0.00
7633,0.00
7634,-40.00
7635,0.00
7636,-80.00
7637,-40.00
7638,0.00
7639,-80.00
7640,-40.00
7641,-80.00
7642,-40.00
7643,-40.00
7644,-80.00
7645,-40.00
7646,-40.00
7647,0.00
7648,0.00
7649,0.00
7650,0.00
7651,0.00
7652,-40.00
7653,0.00
7654,0.00
7655,0.00
7656,0.00
7657,-80.00
7658,-40.00
7659,0.00
7660,-40.00
7661,0.00
7662,-80.00
7663,0.00
7664,-40.00
7665,-80.00
7666,-40.00
7667,-80.00
7668,-40.00
7669,-80.00
7670,0.00
7671,0.00
7672,0.00
7673,0.00
7674,-40.00
7675,-40.00
7676,0.00
7677,-40.00
7678,0.00
7679,-80.00
7680,-40.00
7681,-80.00
7682,-80.00
7683,-80.00
7684,-80.00
7685,-40.00
7686,0.00
7687,0.00
7688,-40.00
7689,-40.00
7690,-40.00
7691,-80.00
7692,-40.00
7693,-80.00
7694,-40.00
7695,-40.00
7696,0.00
7697,-40.00
7698,-40.00
7699,-40.00
7700,-40.00
7701,-40.00
7702,-120.00
7703,-40.00
7704,-40.00
7705,-40.00
7706,0.00
7707,0.00
7708,-40.00
7709,0.00
7710,-40.00
7711,-40.00
7712,0.00
7713,-80.00
7714,-40.00
7715,-80.00
7716,-40.00
7717,-80.00
7718,-80.00
7719,-40.00
7720,0.00
7721,-40.00
7722,0.00
7723,0.00
7724,-40.00
7725,-80.00
7726,-80.00
7727,-80.00
7728,-40.00
7729,-80.00
7730,0.00
7731,-40.00
7732,0.00
7733,-40.00
7734,0.00
7735,-40.00
7736,-80.00
7737,-80.00
7738,-80.00
7739,-40.00
7740,-80.00
7741,0.00
7742,0.00
7743,-40.00
7744,-40.00
7745,0.00
7746,-40.00
7747,-40.00
7748,-120.00
7749,-40.00
7750,-80.00
7751,-80.00
7752,0.00
7753,0.00
7754,-40.00
7755,0.00
7756,0.00
7757,-80.00
7758,0.00
7759,-80.00
7760,-80.00
7761,-40.00
7762,-80.00
7763,-40.00
7764,-80.00
7765,0.00
7766,-40.00
7767,-40.00
7768,-40.00
7769,0.00
7770,-40.00
7771,-80.00
7772,-40.00
7773,0.00
7774,0.00
7775,-80.00
7776,0.00
7777,0.00
7778,-40.00
7779,-40.00
7780,-120.00
7781,-40.00
7782,0.00
7783,-80.00
7784,0.00
7785,0.00
7786,0.00
7787,-40.00
7788,-80.00
7789,-40.00
7790,0.00
7791,-40.00
7792,-80.00
7793,0.00
7794,-40.00
7795,-80.00
7796,-80.00
7797,0.00
7798,-80.00
7799,-80.00
7800,-80.00
7801,-80.00
7802,0.00
7803,-40.00
7804,0.00
7805,-80.00
7806,0.00
7807,-80.00
7808,-80.00
7809,-40.00
7810,-80.00
7811,-80.00
7812,-80.00
7813,0.00
7814,-40.00
7815,0.00
7816,0.00
7817,0.00
7818,-40.00
7819,-80.00
7820,0.00
7821,0.00
7822,0.00
7823,-80.00
7824,-80.00
7825,-40.00
7826,0.00
7827,0.00
7828,-80.00
7829,0.00
7830,-40.00
7831,-40.00
7832,0.00
7833,-80.00
7834,0.00
7835,-120.00
7836,-80.00
7837,-40.00
7838,-80.00
7839,-40.00
7840,-80.00
7841,-40.00
7842,-40.00
7843,-40.00
7844,-40.00
7845,0.00
7846,0.00
7847,0.00
7848,0.00
7849,-40.00
7850,-40.00
7851,0.00
7852,0.00
7853,0.00
7854,-80.00
7855,-40.00
7856,-80.00
7857,0.00
7858,0.00
7859,-80.00
7860,0.00
7861,0.00
7862,0.00
7863,0.00
7864,-80.00
7865,-40.00
7866,0.00
7867,0.00
7868,0.00
7869,-80.00
7870,-40.00
7871,-40.00
7872,0.00
7873,0.00
7874,-80.00
7875,-40.00
7876,-40.00
7877,-80.00
7878,0.00
7879,-80.00
7880,0.00
7881,0.00
7882,-40.00
7883,-80.00
7884,-80.00
7885,-40.00
7886,0.00
7887,-80.00
7888,0.00
7889,0.00
7890,-40.00
7891,0.00
7892,-80.00
7893,-40.00
7894,0.00
7895,-80.00
7896,0.00
7897,-80.00
7898,-40.00
7899,0.00
7900,-80.00
7901,-80.00
7902,-80.00
7903,0.00
7904,-40.00
7905,-80.00
7906,0.00
7907,0.00
7908,-40.00
7909,-80.00
7910,0.00
7911,-40.00
7912,0.00
7913,-80.00
7914,0.00
7915,-80.00
7916,-120.00
7917,-80.00
7918,-80.00
7919,-40.00
7920,-80.00
7921,-40.00
7922,0.00
7923,0.00
7924,0.00
7925,0.00
7926,0.00
7927,-80.00
7928,-40.00
7929,0.00
7930,0.00
7931,0.00
7932,-80.00
7933,-80.00
7934,-40.00
7935,0.00
7936,0.00
7937,-80.00
7938,-40.00
7939,-80.00
7940,0.00
7941,0.00
7942,-80.00
7943,0.00
7944,0.00
7945,0.00
7946,0.00
7947,-80.00
7948,0.00
7949,0.00
7950,0.00
7951,0.00
7952,-80.00
7953,-80.00
7954,0.00
7955,-40.00
7956,0.00
7957,-80.00
7958,-40.00
7959,0.00
7960,-80.00
7961,-40.00
7962,-80.00
7963,-40.00
7964,-40.00
7965,-80.00
7966,0.00
7967,0.00
7968,0.00
7969,0.00
7970,0.00
7971,0.00
7972,0.00
7973,0.00
7974,0.00
7975,0.00
7976,0.00
7977,0.00
7978,0.00
7979,0.00
7980,0.00
7981,0.00
7982,0.00
7983,0.00
7984,0.00
7985,0.00
7986,0.00
7987,0.00
7988,0.00
7989,0.00
7990,0.00
7991,0.00
7992,0.00
7993,0.00
7994,0.00
7995,0.00
7996,0.00
7997,40.00
7998,0.00
7999,0.00
