Channel			  :,CH1
Frequency			  :,F=  ?
Period 			  :,T=  ?
PK-PK				  :,Vpp=4.520V
Average			  :,V=48.00mV
Vertical pos		  :,0.00mV
Probe attenuation	  :,10X
Voltage per ADC value:,40.00mV
Time interval		  :,0.00uS

index,CH1_Voltage(mV)
0,0.00
1,40.00
2,0.00
3,40.00
4,40.00
5,40.00
6,0.00
7,40.00
8,0.00
9,40.00
10,40.00
11,40.00
12,40.00
13,40.00
14,0.00
15,0.00
16,0.00
17,40.00
18,0.00
19,40.00
20,0.00
21,40.00
22,0.00
23,40.00
24,0.00
25,0.00
26,0.00
27,40.00
28,40.00
29,40.00
30,0.00
31,40.00
32,0.00
33,40.00
34,0.00
35,0.00
36,40.00
37,40.00
38,0.00
39,40.00
40,0.00
41,0.00
42,0.00
43,40.00
44,0.00
45,40.00
46,0.00
47,40.00
48,0.00
49,40.00
50,0.00
51,40.00
52,0.00
53,40.00
54,0.00
55,40.00
56,0.00
57,40.00
58,40.00
59,40.00
60,0.00
61,40.00
62,0.00
63,40.00
64,0.00
65,0.00
66,0.00
67,40.00
68,0.00
69,40.00
70,0.00
71,40.00
72,0.00
73,0.00
74,0.00
75,40.00
76,0.00
77,40.00
78,0.00
79,40.00
80,0.00
81,0.00
82,0.00
83,40.00
84,0.00
85,40.00
86,0.00
87,40.00
88,0.00
89,40.00
90,0.00
91,40.00
92,0.00
93,40.00
94,0.00
95,40.00
96,40.00
97,40.00
98,0.00
99,40.00
100,0.00
101,40.00
102,0.00
103,40.00
104,0.00
105,0.00
106,0.00
107,40.00
108,0.00
109,40.00
110,0.00
111,40.00
112,0.00
113,0.00
114,0.00
115,40.00
116,0.00
117,40.00
118,0.00
119,0.00
120,0.00
121,40.00
122,0.00
123,40.00
124,0.00
125,40.00
126,0.00
127,40.00
128,0.00
129,0.00
130,40.00
131,40.00
132,0.00
133,0.00
134,0.00
135,40.00
136,0.00
137,40.00
138,0.00
139,0.00
140,0.00
141,40.00
142,0.00
143,40.00
144,0.00
145,40.00
146,40.00
147,40.00
148,0.00
149,40.00
150,0.00
151,40.00
152,40.00
153,0.00
154,0.00
155,40.00
156,0.00
157,40.00
158,0.00
159,40.00
160,40.00
161,40.00
162,0.00
163,40.00
164,0.00
165,40.00
166,40.00
167,0.00
168,0.00
169,40.00
170,0.00
171,40.00
172,0.00
173,40.00
174,0.00
175,40.00
176,0.00
177,40.00
178,0.00
179,40.00
180,40.00
181,0.00
182,0.00
183,40.00
184,40.00
185,40.00
186,0.00
187,40.00
188,40.00
189,0.00
190,0.00
191,40.00
192,0.00
193,40.00
194,0.00
195,40.00
196,0.00
197,0.00
198,0.00
199,40.00
200,0.00
201,40.00
202,0.00
203,0.00
204,0.00
205,40.00
206,0.00
207,40.00
208,0.00
209,40.00
210,0.00
211,40.00
212,0.00
213,0.00
214,0.00
215,40.00
216,0.00
217,40.00
218,0.00
219,0.00
220,40.00
221,40.00
222,0.00
223,40.00
224,0.00
225,40.00
226,40.00
227,40.00
228,0.00
229,40.00
230,0.00
231,40.00
232,0.00
233,40.00
234,0.00
235,0.00
236,0.00
237,40.00
238,0.00
239,40.00
240,0.00
241,40.00
242,40.00
243,40.00
244,0.00
245,40.00
246,0.00
247,40.00
248,0.00
249,40.00
250,40.00
251,0.00
252,0.00
253,40.00
254,0.00
255,40.00
256,0.00
257,40.00
258,0.00
259,0.00
260,0.00
261,40.00
262,0.00
263,40.00
264,0.00
265,0.00
266,40.00
267,0.00
268,0.00
269,40.00
270,0.00
271,0.00
272,40.00
273,40.00
274,0.00
275,40.00
276,0.00
277,0.00
278,0.00
279,40.00
280,0.00
281,40.00
282,0.00
283,40.00
284,0.00
285,40.00
286,0.00
287,40.00
288,0.00
289,40.00
290,40.00
291,40.00
292,0.00
293,40.00
294,40.00
295,0.00
296,0.00
297,40.00
298,40.00
299,0.00
300,0.00
301,40.00
302,0.00
303,0.00
304,0.00
305,40.00
306,0.00
307,40.00
308,0.00
309,0.00
310,0.00
311,0.00
312,0.00
313,40.00
314,0.00
315,0.00
316,0.00
317,40.00
318,0.00
319,0.00
320,40.00
321,40.00
322,0.00
323,40.00
324,0.00
325,0.00
326,0.00
327,0.00
328,0.00
329,40.00
330,0.00
331,40.00
332,0.00
333,40.00
334,0.00
335,40.00
336,0.00
337,40.00
338,0.00
339,0.00
340,0.00
341,0.00
342,0.00
343,40.00
344,0.00
345,40.00
346,0.00
347,0.00
348,0.00
349,40.00
350,0.00
351,40.00
352,0.00
353,40.00
354,0.00
355,0.00
356,0.00
357,40.00
358,0.00
359,40.00
360,0.00
361,0.00
362,0.00
363,0.00
364,0.00
365,0.00
366,0.00
367,40.00
368,0.00
369,40.00
370,0.00
371,40.00
372,0.00
373,40.00
374,0.00
375,40.00
376,0.00
377,40.00
378,0.00
379,40.00
380,0.00
381,40.00
382,40.00
383,0.00
384,40.00
385,0.00
386,40.00
387,40.00
388,40.00
389,0.00
390,0.00
391,40.00
392,0.00
393,40.00
394,0.00
395,40.00
396,0.00
397,40.00
398,0.00
399,40.00
400,0.00
401,40.00
402,0.00
403,40.00
404,40.00
405,0.00
406,0.00
407,0.00
408,0.00
409,40.00
410,0.00
411,40.00
412,0.00
413,0.00
414,0.00
415,40.00
416,0.00
417,40.00
418,0.00
419,40.00
420,0.00
421,40.00
422,0.00
423,40.00
424,0.00
425,40.00
426,0.00
427,40.00
428,0.00
429,40.00
430,0.00
431,40.00
432,0.00
433,40.00
434,0.00
435,0.00
436,0.00
437,40.00
438,40.00
439,40.00
440,0.00
441,40.00
442,0.00
443,40.00
444,0.00
445,40.00
446,0.00
447,0.00
448,0.00
449,40.00
450,0.00
451,40.00
452,0.00
453,40.00
454,0.00
455,40.00
456,0.00
457,40.00
458,0.00
459,40.00
460,0.00
461,0.00
462,0.00
463,40.00
464,0.00
465,40.00
466,0.00
467,0.00
468,0.00
469,40.00
470,0.00
471,40.00
472,0.00
473,40.00
474,0.00
475,0.00
476,0.00
477,40.00
478,0.00
479,0.00
480,40.00
481,40.00
482,0.00
483,0.00
484,0.00
485,40.00
486,0.00
487,40.00
488,0.00
489,40.00
490,0.00
491,0.00
492,0.00
493,40.00
494,0.00
495,40.00
496,40.00
497,0.00
498,0.00
499,0.00
500,0.00
501,0.00
502,0.00
503,0.00
504,0.00
505,40.00
506,0.00
507,40.00
508,0.00
509,40.00
510,0.00
511,40.00
512,0.00
513,40.00
514,0.00
515,40.00
516,0.00
517,40.00
518,0.00
519,0.00
520,0.00
521,0.00
522,40.00
523,0.00
524,0.00
525,40.00
526,0.00
527,40.00
528,0.00
529,40.00
530,0.00
531,0.00
532,0.00
533,40.00
534,0.00
535,40.00
536,0.00
537,0.00
538,40.00
539,0.00
540,0.00
541,40.00
542,0.00
543,40.00
544,40.00
545,40.00
546,0.00
547,0.00
548,0.00
549,40.00
550,0.00
551,0.00
552,0.00
553,0.00
554,0.00
555,40.00
556,0.00
557,40.00
558,0.00
559,40.00
560,0.00
561,40.00
562,0.00
563,40.00
564,0.00
565,0.00
566,0.00
567,40.00
568,40.00
569,40.00
570,0.00
571,0.00
572,0.00
573,40.00
574,0.00
575,40.00
576,0.00
577,40.00
578,0.00
579,0.00
580,0.00
581,40.00
582,0.00
583,40.00
584,0.00
585,40.00
586,40.00
587,40.00
588,0.00
589,40.00
590,0.00
591,0.00
592,0.00
593,40.00
594,0.00
595,0.00
596,0.00
597,40.00
598,0.00
599,0.00
600,0.00
601,40.00
602,0.00
603,0.00
604,0.00
605,40.00
606,0.00
607,0.00
608,0.00
609,0.00
610,40.00
611,0.00
612,0.00
613,40.00
614,0.00
615,40.00
616,0.00
617,0.00
618,0.00
619,0.00
620,0.00
621,0.00
622,0.00
623,40.00
624,0.00
625,40.00
626,0.00
627,40.00
628,40.00
629,0.00
630,0.00
631,0.00
632,0.00
633,40.00
634,0.00
635,0.00
636,0.00
637,40.00
638,0.00
639,0.00
640,0.00
641,40.00
642,0.00
643,40.00
644,0.00
645,0.00
646,0.00
647,0.00
648,0.00
649,0.00
650,0.00
651,40.00
652,0.00
653,0.00
654,0.00
655,40.00
656,0.00
657,40.00
658,0.00
659,0.00
660,0.00
661,40.00
662,0.00
663,40.00
664,0.00
665,0.00
666,0.00
667,40.00
668,0.00
669,40.00
670,0.00
671,0.00
672,40.00
673,40.00
674,0.00
675,0.00
676,0.00
677,40.00
678,40.00
679,40.00
680,0.00
681,40.00
682,0.00
683,40.00
684,0.00
685,0.00
686,0.00
687,40.00
688,0.00
689,40.00
690,0.00
691,40.00
692,0.00
693,0.00
694,0.00
695,40.00
696,0.00
697,0.00
698,0.00
699,40.00
700,0.00
701,40.00
702,0.00
703,0.00
704,0.00
705,0.00
706,0.00
707,40.00
708,0.00
709,40.00
710,0.00
711,40.00
712,0.00
713,40.00
714,0.00
715,0.00
716,0.00
717,0.00
718,-240.00
719,-640.00
720,-960.00
721,-1320.00
722,-1720.00
723,-2000.00
724,-2200.00
725,-2200.00
726,-2160.00
727,-1920.00
728,-1600.00
729,-1160.00
730,-560.00
731,0.00
732,560.00
733,1040.00
734,1440.00
735,1840.00
736,2080.00
737,2240.00
738,2200.00
739,2080.00
740,1960.00
741,1920.00
742,1760.00
743,1680.00
744,1600.00
745,1640.00
746,1480.00
747,1480.00
748,1360.00
749,1400.00
750,1320.00
751,1280.00
752,1200.00
753,1120.00
754,800.00
755,360.00
756,-120.00
757,-600.00
758,-1080.00
759,-1480.00
760,-1840.00
761,-2080.00
762,-2240.00
763,-2200.00
764,-2080.00
765,-1960.00
766,-1840.00
767,-1760.00
768,-1640.00
769,-1600.00
770,-1520.00
771,-1480.00
772,-1400.00
773,-1360.00
774,-1320.00
775,-1280.00
776,-1200.00
777,-1160.00
778,-1040.00
779,-760.00
780,-400.00
781,160.00
782,640.00
783,1120.00
784,1480.00
785,1920.00
786,2120.00
787,2280.00
788,2200.00
789,2120.00
790,1920.00
791,1920.00
792,1760.00
793,1680.00
794,1520.00
795,1640.00
796,1480.00
797,1480.00
798,1360.00
799,1360.00
800,1320.00
801,1280.00
802,1200.00
803,1120.00
804,800.00
805,400.00
806,-80.00
807,-600.00
808,-1120.00
809,-1480.00
810,-1840.00
811,-2080.00
812,-2240.00
813,-2200.00
814,-2080.00
815,-1960.00
816,-1840.00
817,-1760.00
818,-1600.00
819,-1640.00
820,-1520.00
821,-1480.00
822,-1400.00
823,-1360.00
824,-1320.00
825,-1280.00
826,-1200.00
827,-1160.00
828,-1040.00
829,-760.00
830,-360.00
831,160.00
832,640.00
833,1120.00
834,1480.00
835,1920.00
836,2120.00
837,2280.00
838,2200.00
839,2120.00
840,1920.00
841,1920.00
842,1760.00
843,1680.00
844,1560.00
845,1640.00
846,1480.00
847,1480.00
848,1360.00
849,1360.00
850,1320.00
851,1280.00
852,1200.00
853,1120.00
854,800.00
855,400.00
856,-80.00
857,-600.00
858,-1040.00
859,-1480.00
860,-1800.00
861,-2040.00
862,-2240.00
863,-2200.00
864,-2080.00
865,-1960.00
866,-1840.00
867,-1760.00
868,-1600.00
869,-1600.00
870,-1480.00
871,-1480.00
872,-1400.00
873,-1360.00
874,-1320.00
875,-1280.00
876,-1240.00
877,-1160.00
878,-1040.00
879,-760.00
880,-360.00
881,160.00
882,640.00
883,1120.00
884,1480.00
885,1920.00
886,2120.00
887,2280.00
888,2200.00
889,2120.00
890,1920.00
891,1920.00
892,1760.00
893,1680.00
894,1520.00
895,1600.00
896,1480.00
897,1480.00
898,1360.00
899,1400.00
900,1320.00
901,1280.00
902,1200.00
903,1120.00
904,800.00
905,400.00
906,-80.00
907,-600.00
908,-1040.00
909,-1480.00
910,-1840.00
911,-2080.00
912,-2240.00
913,-2200.00
914,-2080.00
915,-1960.00
916,-1840.00
917,-1760.00
918,-1640.00
919,-1600.00
920,-1520.00
921,-1480.00
922,-1400.00
923,-1360.00
924,-1320.00
925,-1280.00
926,-1200.00
927,-1160.00
928,-1000.00
929,-760.00
930,-400.00
931,120.00
932,640.00
933,1120.00
934,1480.00
935,1920.00
936,2120.00
937,2280.00
938,2200.00
939,2120.00
940,1960.00
941,1920.00
942,1760.00
943,1720.00
944,1560.00
945,1600.00
946,1480.00
947,1480.00
948,1360.00
949,1360.00
950,1320.00
951,1280.00
952,1200.00
953,1120.00
954,840.00
955,400.00
956,-80.00
957,-600.00
958,-1080.00
959,-1480.00
960,-1840.00
961,-2080.00
962,-2240.00
963,-2200.00
964,-2080.00
965,-1960.00
966,-1840.00
967,-1760.00
968,-1640.00
969,-1600.00
970,-1480.00
971,-1480.00
972,-1400.00
973,-1360.00
974,-1320.00
975,-1280.00
976,-1240.00
977,-1160.00
978,-1040.00
979,-760.00
980,-400.00
981,120.00
982,640.00
983,1120.00
984,1480.00
985,1920.00
986,2120.00
987,2280.00
988,2200.00
989,2120.00
990,1920.00
991,1920.00
992,1760.00
993,1680.00
994,1520.00
995,1640.00
996,1480.00
997,1480.00
998,1360.00
999,1400.00
1000,1320.00
1001,1280.00
1002,1240.00
1003,1120.00
1004,800.00
1005,400.00
1006,-80.00
1007,-600.00
1008,-1040.00
1009,-1480.00
1010,-1840.00
1011,-2080.00
1012,-2240.00
1013,-2200.00
1014,-2080.00
1015,-1960.00
1016,-1840.00
1017,-1760.00
1018,-1640.00
1019,-1600.00
1020,-1520.00
1021,-1480.00
1022,-1400.00
1023,-1360.00
1024,-1320.00
1025,-1280.00
1026,-1200.00
1027,-1160.00
1028,-1040.00
1029,-760.00
1030,-400.00
1031,120.00
1032,640.00
1033,1080.00
1034,1480.00
1035,1920.00
1036,2120.00
1037,2280.00
1038,2200.00
1039,2120.00
1040,1920.00
1041,1920.00
1042,1760.00
1043,1720.00
1044,1560.00
1045,1640.00
1046,1480.00
1047,1480.00
1048,1360.00
1049,1360.00
1050,1320.00
1051,1280.00
1052,1200.00
1053,1120.00
1054,800.00
1055,400.00
1056,-80.00
1057,-560.00
1058,-1040.00
1059,-1480.00
1060,-1800.00
1061,-2040.00
1062,-2240.00
1063,-2200.00
1064,-2080.00
1065,-1960.00
1066,-1840.00
1067,-1760.00
1068,-1640.00
1069,-1600.00
1070,-1560.00
1071,-1480.00
1072,-1400.00
1073,-1360.00
1074,-1320.00
1075,-1280.00
1076,-1200.00
1077,-1160.00
1078,-1040.00
1079,-760.00
1080,-400.00
1081,120.00
1082,640.00
1083,1080.00
1084,1480.00
1085,1920.00
1086,2120.00
1087,2280.00
1088,2200.00
1089,2120.00
1090,1920.00
1091,1920.00
1092,1760.00
1093,1680.00
1094,1560.00
1095,1640.00
1096,1480.00
1097,1480.00
1098,1400.00
1099,1400.00
1100,1320.00
1101,1280.00
1102,1200.00
1103,1120.00
1104,800.00
1105,400.00
1106,-80.00
1107,-600.00
1108,-1000.00
1109,-1440.00
1110,-1840.00
1111,-2080.00
1112,-2240.00
1113,-2200.00
1114,-2080.00
1115,-1960.00
1116,-1840.00
1117,-1760.00
1118,-1640.00
1119,-1640.00
1120,-1560.00
1121,-1480.00
1122,-1400.00
1123,-1360.00
1124,-1320.00
1125,-1280.00
1126,-1240.00
1127,-1160.00
1128,-1040.00
1129,-760.00
1130,-400.00
1131,120.00
1132,640.00
1133,1080.00
1134,1480.00
1135,1920.00
1136,2120.00
1137,2280.00
1138,2240.00
1139,2120.00
1140,1920.00
1141,1920.00
1142,1760.00
1143,1720.00
1144,1560.00
1145,1600.00
1146,1480.00
1147,1480.00
1148,1360.00
1149,1360.00
1150,1320.00
1151,1280.00
1152,1200.00
1153,1120.00
1154,800.00
1155,400.00
1156,-80.00
1157,-560.00
1158,-1040.00
1159,-1480.00
1160,-1840.00
1161,-2040.00
1162,-2240.00
1163,-2200.00
1164,-2080.00
1165,-1960.00
1166,-1840.00
1167,-1760.00
1168,-1640.00
1169,-1600.00
1170,-1560.00
1171,-1480.00
1172,-1400.00
1173,-1360.00
1174,-1320.00
1175,-1280.00
1176,-1200.00
1177,-1160.00
1178,-1040.00
1179,-760.00
1180,-400.00
1181,160.00
1182,640.00
1183,1080.00
1184,1480.00
1185,1920.00
1186,2120.00
1187,2280.00
1188,2200.00
1189,2120.00
1190,1920.00
1191,1920.00
1192,1760.00
1193,1680.00
1194,1560.00
1195,1600.00
1196,1480.00
1197,1480.00
1198,1360.00
1199,1360.00
1200,1200.00
1201,1120.00
1202,800.00
1203,400.00
1204,-80.00
1205,-600.00
1206,-1040.00
1207,-1480.00
1208,-1800.00
1209,-2080.00
1210,-2240.00
1211,-2200.00
1212,-2080.00
1213,-1960.00
1214,-1840.00
1215,-1760.00
1216,-1640.00
1217,-1600.00
1218,-1560.00
1219,-1480.00
1220,-1400.00
1221,-1360.00
1222,-1320.00
1223,-1280.00
1224,-1200.00
1225,-1160.00
1226,-1040.00
1227,-760.00
1228,-400.00
1229,120.00
1230,640.00
1231,1080.00
1232,1480.00
1233,1920.00
1234,2120.00
1235,2280.00
1236,2200.00
1237,2120.00
1238,1920.00
1239,1920.00
1240,1760.00
1241,1720.00
1242,1560.00
1243,1640.00
1244,1480.00
1245,1520.00
1246,1400.00
1247,1360.00
1248,1320.00
1249,1280.00
1250,1200.00
1251,1120.00
1252,800.00
1253,400.00
1254,-80.00
1255,-600.00
1256,-1040.00
1257,-1480.00
1258,-1840.00
1259,-2080.00
1260,-2240.00
1261,-2200.00
1262,-2080.00
1263,-1960.00
1264,-1840.00
1265,-1760.00
1266,-1640.00
1267,-1600.00
1268,-1520.00
1269,-1480.00
1270,-1400.00
1271,-1360.00
1272,-1320.00
1273,-1280.00
1274,-1240.00
1275,-1160.00
1276,-1040.00
1277,-760.00
1278,-400.00
1279,120.00
1280,640.00
1281,1120.00
1282,1480.00
1283,1920.00
1284,2120.00
1285,2280.00
1286,2240.00
1287,2120.00
1288,1920.00
1289,1920.00
1290,1760.00
1291,1720.00
1292,1520.00
1293,1640.00
1294,1520.00
1295,1480.00
1296,1400.00
1297,1360.00
1298,1320.00
1299,1280.00
1300,1200.00
1301,1120.00
1302,800.00
1303,400.00
1304,-80.00
1305,-600.00
1306,-1040.00
1307,-1480.00
1308,-1840.00
1309,-2080.00
1310,-2240.00
1311,-2200.00
1312,-2080.00
1313,-1960.00
1314,-1840.00
1315,-1760.00
1316,-1640.00
1317,-1600.00
1318,-1560.00
1319,-1480.00
1320,-1400.00
1321,-1360.00
1322,-1320.00
1323,-1280.00
1324,-1240.00
1325,-1160.00
1326,-1040.00
1327,-760.00
1328,-400.00
1329,120.00
1330,640.00
1331,1080.00
1332,1480.00
1333,1920.00
1334,2120.00
1335,2280.00
1336,2200.00
1337,2120.00
1338,1920.00
1339,1920.00
1340,1760.00
1341,1720.00
1342,1560.00
1343,1600.00
1344,1480.00
1345,1480.00
1346,1360.00
1347,1360.00
1348,1320.00
1349,1280.00
1350,1200.00
1351,1120.00
1352,800.00
1353,400.00
1354,-80.00
1355,-600.00
1356,-1080.00
1357,-1480.00
1358,-1840.00
1359,-2080.00
1360,-2240.00
1361,-2200.00
1362,-2080.00
1363,-1960.00
1364,-1840.00
1365,-1760.00
1366,-1640.00
1367,-1600.00
1368,-1560.00
1369,-1480.00
1370,-1400.00
1371,-1360.00
1372,-1320.00
1373,-1280.00
1374,-1200.00
1375,-1160.00
1376,-1000.00
1377,-760.00
1378,-400.00
1379,120.00
1380,640.00
1381,1080.00
1382,1480.00
1383,1920.00
1384,2120.00
1385,2280.00
1386,2200.00
1387,2120.00
1388,1920.00
1389,1920.00
1390,1760.00
1391,1680.00
1392,1560.00
1393,1600.00
1394,1480.00
1395,1480.00
1396,1360.00
1397,1360.00
1398,1320.00
1399,1280.00
1400,1200.00
1401,1120.00
1402,800.00
1403,400.00
1404,-80.00
1405,-600.00
1406,-1080.00
1407,-1480.00
1408,-1840.00
1409,-2080.00
1410,-2240.00
1411,-2200.00
1412,-2080.00
1413,-1960.00
1414,-1840.00
1415,-1760.00
1416,-1640.00
1417,-1640.00
1418,-1520.00
1419,-1480.00
1420,-1400.00
1421,-1360.00
1422,-1320.00
1423,-1280.00
1424,-1240.00
1425,-1160.00
1426,-1040.00
1427,-760.00
1428,-360.00
1429,120.00
1430,640.00
1431,1080.00
1432,1480.00
1433,1920.00
1434,2160.00
1435,2280.00
1436,2200.00
1437,2120.00
1438,1920.00
1439,1920.00
1440,1760.00
1441,1680.00
1442,1560.00
1443,1600.00
1444,1480.00
1445,1480.00
1446,1360.00
1447,1360.00
1448,1320.00
1449,1280.00
1450,1200.00
1451,1120.00
1452,800.00
1453,360.00
1454,-80.00
1455,-600.00
1456,-1120.00
1457,-1480.00
1458,-1840.00
1459,-2080.00
1460,-2240.00
1461,-2200.00
1462,-2120.00
1463,-1960.00
1464,-1840.00
1465,-1760.00
1466,-1640.00
1467,-1640.00
1468,-1520.00
1469,-1480.00
1470,-1400.00
1471,-1360.00
1472,-1320.00
1473,-1280.00
1474,-1200.00
1475,-1160.00
1476,-1040.00
1477,-760.00
1478,-360.00
1479,120.00
1480,640.00
1481,1080.00
1482,1480.00
1483,1920.00
1484,2120.00
1485,2280.00
1486,2200.00
1487,2120.00
1488,1920.00
1489,1920.00
1490,1760.00
1491,1680.00
1492,1560.00
1493,1600.00
1494,1480.00
1495,1480.00
1496,1360.00
1497,1360.00
1498,1320.00
1499,1280.00
1500,1200.00
1501,1120.00
1502,800.00
1503,360.00
1504,-120.00
1505,-600.00
1506,-1080.00
1507,-1480.00
1508,-1840.00
1509,-2080.00
1510,-2240.00
1511,-2200.00
1512,-2080.00
1513,-1960.00
1514,-1840.00
1515,-1760.00
1516,-1640.00
1517,-1640.00
1518,-1480.00
1519,-1480.00
1520,-1400.00
1521,-1360.00
1522,-1320.00
1523,-1320.00
1524,-1240.00
1525,-1160.00
1526,-1040.00
1527,-760.00
1528,-360.00
1529,160.00
1530,640.00
1531,1120.00
1532,1520.00
1533,1920.00
1534,2120.00
1535,2280.00
1536,2240.00
1537,2120.00
1538,1920.00
1539,1920.00
1540,1760.00
1541,1680.00
1542,1560.00
1543,1600.00
1544,1480.00
1545,1480.00
1546,1360.00
1547,1360.00
1548,1280.00
1549,1280.00
1550,1200.00
1551,1120.00
1552,800.00
1553,400.00
1554,-80.00
1555,-600.00
1556,-1120.00
1557,-1480.00
1558,-1840.00
1559,-2080.00
1560,-2240.00
1561,-2200.00
1562,-2080.00
1563,-1960.00
1564,-1840.00
1565,-1760.00
1566,-1640.00
1567,-1600.00
1568,-1520.00
1569,-1480.00
1570,-1440.00
1571,-1360.00
1572,-1320.00
1573,-1280.00
1574,-1200.00
1575,-1160.00
1576,-1000.00
1577,-760.00
1578,-400.00
1579,120.00
1580,640.00
1581,1080.00
1582,1480.00
1583,1920.00
1584,2120.00
1585,2280.00
1586,2200.00
1587,2120.00
1588,1920.00
1589,1920.00
1590,1760.00
1591,1680.00
1592,1560.00
1593,1600.00
1594,1480.00
1595,1480.00
1596,1360.00
1597,1360.00
1598,1320.00
1599,1280.00
1600,1200.00
1601,1120.00
1602,800.00
1603,360.00
1604,-80.00
1605,-600.00
1606,-1120.00
1607,-1480.00
1608,-1840.00
1609,-2080.00
1610,-2240.00
1611,-2200.00
1612,-2080.00
1613,-1960.00
1614,-1840.00
1615,-1760.00
1616,-1640.00
1617,-1600.00
1618,-1520.00
1619,-1480.00
1620,-1400.00
1621,-1360.00
1622,-1320.00
1623,-1280.00
1624,-1200.00
1625,-1160.00
1626,-1040.00
1627,-760.00
1628,-400.00
1629,160.00
1630,640.00
1631,1120.00
1632,1480.00
1633,1920.00
1634,2120.00
1635,2280.00
1636,2200.00
1637,2120.00
1638,1920.00
1639,1920.00
1640,1760.00
1641,1680.00
1642,1560.00
1643,1600.00
1644,1480.00
1645,1480.00
1646,1360.00
1647,1360.00
1648,1320.00
1649,1280.00
1650,1200.00
1651,1120.00
1652,800.00
1653,360.00
1654,-80.00
1655,-600.00
1656,-1120.00
1657,-1480.00
1658,-1840.00
1659,-2080.00
1660,-2240.00
1661,-2200.00
1662,-2120.00
1663,-1960.00
1664,-1840.00
1665,-1760.00
1666,-1640.00
1667,-1600.00
1668,-1520.00
1669,-1480.00
1670,-1400.00
1671,-1360.00
1672,-1320.00
1673,-1280.00
1674,-1200.00
1675,-1160.00
1676,-1040.00
1677,-760.00
1678,-400.00
1679,160.00
1680,640.00
1681,1120.00
1682,1480.00
1683,1920.00
1684,2120.00
1685,2280.00
1686,2200.00
1687,2120.00
1688,1920.00
1689,1920.00
1690,1760.00
1691,1720.00
1692,1520.00
1693,1640.00
1694,1480.00
1695,1480.00
1696,1360.00
1697,1360.00
1698,1320.00
1699,1280.00
1700,1200.00
1701,1080.00
1702,800.00
1703,360.00
1704,-120.00
1705,-600.00
1706,-1080.00
1707,-1480.00
1708,-1840.00
1709,-2080.00
1710,-2240.00
1711,-2200.00
1712,-2080.00
1713,-1960.00
1714,-1840.00
1715,-1760.00
1716,-1640.00
1717,-1600.00
1718,-1480.00
1719,-1480.00
1720,-1440.00
1721,-1360.00
1722,-1320.00
1723,-1280.00
1724,-1200.00
1725,-1160.00
1726,-1000.00
1727,-760.00
1728,-400.00
1729,160.00
1730,640.00
1731,1080.00
1732,1520.00
1733,1920.00
1734,2120.00
1735,2280.00
1736,2200.00
1737,2120.00
1738,1920.00
1739,1920.00
1740,1760.00
1741,1680.00
1742,1600.00
1743,1640.00
1744,1480.00
1745,1480.00
1746,1360.00
1747,1360.00
1748,1280.00
1749,1280.00
1750,1200.00
1751,1120.00
1752,800.00
1753,360.00
1754,-120.00
1755,-600.00
1756,-1120.00
1757,-1480.00
1758,-1840.00
1759,-2080.00
1760,-2240.00
1761,-2200.00
1762,-2120.00
1763,-2000.00
1764,-1840.00
1765,-1800.00
1766,-1640.00
1767,-1600.00
1768,-1520.00
1769,-1480.00
1770,-1400.00
1771,-1360.00
1772,-1320.00
1773,-1320.00
1774,-1200.00
1775,-1160.00
1776,-1040.00
1777,-760.00
1778,-400.00
1779,160.00
1780,640.00
1781,1120.00
1782,1480.00
1783,1920.00
1784,2120.00
1785,2280.00
1786,2200.00
1787,2120.00
1788,1920.00
1789,1920.00
1790,1760.00
1791,1680.00
1792,1520.00
1793,1640.00
1794,1480.00
1795,1480.00
1796,1360.00
1797,1400.00
1798,1320.00
1799,1280.00
1800,800.00
1801,360.00
1802,-120.00
1803,-600.00
1804,-1080.00
1805,-1480.00
1806,-1840.00
1807,-2080.00
1808,-2240.00
1809,-2200.00
1810,-2080.00
1811,-1960.00
1812,-1840.00
1813,-1760.00
1814,-1640.00
1815,-1600.00
1816,-1520.00
1817,-1480.00
1818,-1400.00
1819,-1360.00
1820,-1320.00
1821,-1280.00
1822,-1240.00
1823,-1160.00
1824,-1040.00
1825,-760.00
1826,-400.00
1827,160.00
1828,640.00
1829,1120.00
1830,1480.00
1831,1920.00
1832,2120.00
1833,2280.00
1834,2200.00
1835,2120.00
1836,1920.00
1837,1920.00
1838,1760.00
1839,1680.00
1840,1520.00
1841,1640.00
1842,1480.00
1843,1480.00
1844,1360.00
1845,1360.00
1846,1320.00
1847,1280.00
1848,1200.00
1849,1120.00
1850,800.00
1851,400.00
1852,-80.00
1853,-600.00
1854,-1120.00
1855,-1480.00
1856,-1840.00
1857,-2080.00
1858,-2240.00
1859,-2200.00
1860,-2080.00
1861,-1960.00
1862,-1840.00
1863,-1760.00
1864,-1640.00
1865,-1600.00
1866,-1520.00
1867,-1480.00
1868,-1400.00
1869,-1360.00
1870,-1320.00
1871,-1320.00
1872,-1240.00
1873,-1160.00
1874,-1040.00
1875,-760.00
1876,-400.00
1877,160.00
1878,640.00
1879,1120.00
1880,1480.00
1881,1920.00
1882,2120.00
1883,2280.00
1884,2200.00
1885,2120.00
1886,1920.00
1887,1920.00
1888,1760.00
1889,1680.00
1890,1520.00
1891,1600.00
1892,1480.00
1893,1480.00
1894,1360.00
1895,1360.00
1896,1280.00
1897,1280.00
1898,1200.00
1899,1120.00
1900,800.00
1901,360.00
1902,-120.00
1903,-600.00
1904,-1080.00
1905,-1480.00
1906,-1840.00
1907,-2080.00
1908,-2240.00
1909,-2200.00
1910,-2080.00
1911,-2000.00
1912,-1840.00
1913,-1760.00
1914,-1640.00
1915,-1600.00
1916,-1520.00
1917,-1480.00
1918,-1400.00
1919,-1360.00
1920,-1320.00
1921,-1280.00
1922,-1200.00
1923,-1160.00
1924,-1040.00
1925,-760.00
1926,-400.00
1927,120.00
1928,640.00
1929,1120.00
1930,1480.00
1931,1920.00
1932,2120.00
1933,2280.00
1934,2200.00
1935,2120.00
1936,1920.00
1937,1920.00
1938,1760.00
1939,1680.00
1940,1520.00
1941,1600.00
1942,1480.00
1943,1520.00
1944,1360.00
1945,1360.00
1946,1280.00
1947,1280.00
1948,1200.00
1949,1080.00
1950,800.00
1951,360.00
1952,-120.00
1953,-600.00
1954,-1120.00
1955,-1480.00
1956,-1840.00
1957,-2080.00
1958,-2240.00
1959,-2200.00
1960,-2080.00
1961,-1960.00
1962,-1840.00
1963,-1760.00
1964,-1640.00
1965,-1600.00
1966,-1520.00
1967,-1480.00
1968,-1400.00
1969,-1360.00
1970,-1320.00
1971,-1280.00
1972,-1240.00
1973,-1160.00
1974,-1040.00
1975,-760.00
1976,-400.00
1977,160.00
1978,640.00
1979,1120.00
1980,1480.00
1981,1920.00
1982,2120.00
1983,2280.00
1984,2200.00
1985,2120.00
1986,1920.00
1987,1920.00
1988,1760.00
1989,1680.00
1990,1520.00
1991,1640.00
1992,1480.00
1993,1480.00
1994,1360.00
1995,1360.00
1996,1280.00
1997,1280.00
1998,1240.00
1999,1120.00
2000,800.00
2001,360.00
2002,-120.00
2003,-600.00
2004,-1120.00
2005,-1480.00
2006,-1840.00
2007,-2080.00
2008,-2240.00
2009,-2200.00
2010,-2080.00
2011,-2000.00
2012,-1840.00
2013,-1760.00
2014,-1640.00
2015,-1600.00
2016,-1560.00
2017,-1480.00
2018,-1400.00
2019,-1360.00
2020,-1320.00
2021,-1280.00
2022,-1200.00
2023,-1160.00
2024,-1000.00
2025,-760.00
2026,-360.00
2027,160.00
2028,640.00
2029,1120.00
2030,1480.00
2031,1920.00
2032,2120.00
2033,2280.00
2034,2200.00
2035,2120.00
2036,1920.00
2037,1920.00
2038,1760.00
2039,1680.00
2040,1520.00
2041,1600.00
2042,1480.00
2043,1480.00
2044,1360.00
2045,1360.00
2046,1320.00
2047,1280.00
2048,1200.00
2049,1120.00
2050,800.00
2051,360.00
2052,-120.00
2053,-600.00
2054,-1120.00
2055,-1480.00
2056,-1840.00
2057,-2080.00
2058,-2240.00
2059,-2200.00
2060,-2120.00
2061,-1960.00
2062,-1840.00
2063,-1760.00
2064,-1640.00
2065,-1600.00
2066,-1520.00
2067,-1480.00
2068,-1400.00
2069,-1360.00
2070,-1320.00
2071,-1280.00
2072,-1200.00
2073,-1160.00
2074,-1040.00
2075,-760.00
2076,-360.00
2077,160.00
2078,640.00
2079,1120.00
2080,1480.00
2081,1920.00
2082,2120.00
2083,2280.00
2084,2200.00
2085,2120.00
2086,1920.00
2087,1920.00
2088,1760.00
2089,1680.00
2090,1520.00
2091,1600.00
2092,1480.00
2093,1480.00
2094,1360.00
2095,1360.00
2096,1280.00
2097,1280.00
2098,1200.00
2099,1120.00
2100,800.00
2101,400.00
2102,-120.00
2103,-600.00
2104,-1120.00
2105,-1480.00
2106,-1840.00
2107,-2040.00
2108,-2240.00
2109,-2200.00
2110,-2080.00
2111,-1960.00
2112,-1840.00
2113,-1760.00
2114,-1680.00
2115,-1600.00
2116,-1520.00
2117,-1480.00
2118,-1400.00
2119,-1360.00
2120,-1320.00
2121,-1280.00
2122,-1240.00
2123,-1160.00
2124,-1040.00
2125,-760.00
2126,-400.00
2127,160.00
2128,640.00
2129,1120.00
2130,1520.00
2131,1920.00
2132,2120.00
2133,2280.00
2134,2200.00
2135,2120.00
2136,1920.00
2137,1920.00
2138,1760.00
2139,1680.00
2140,1560.00
2141,1640.00
2142,1480.00
2143,1480.00
2144,1360.00
2145,1360.00
2146,1240.00
2147,1280.00
2148,1200.00
2149,1120.00
2150,800.00
2151,360.00
2152,-120.00
2153,-600.00
2154,-1120.00
2155,-1480.00
2156,-1840.00
2157,-2080.00
2158,-2240.00
2159,-2200.00
2160,-2080.00
2161,-1960.00
2162,-1840.00
2163,-1760.00
2164,-1640.00
2165,-1600.00
2166,-1520.00
2167,-1480.00
2168,-1400.00
2169,-1360.00
2170,-1320.00
2171,-1280.00
2172,-1240.00
2173,-1160.00
2174,-1000.00
2175,-760.00
2176,-400.00
2177,200.00
2178,640.00
2179,1120.00
2180,1520.00
2181,1960.00
2182,2120.00
2183,2280.00
2184,2200.00
2185,2120.00
2186,1920.00
2187,1920.00
2188,1760.00
2189,1680.00
2190,1520.00
2191,1600.00
2192,1480.00
2193,1480.00
2194,1360.00
2195,1360.00
2196,1320.00
2197,1280.00
2198,1200.00
2199,1120.00
2200,800.00
2201,360.00
2202,-120.00
2203,-600.00
2204,-1120.00
2205,-1480.00
2206,-1840.00
2207,-2080.00
2208,-2240.00
2209,-2200.00
2210,-2120.00
2211,-2000.00
2212,-1840.00
2213,-1760.00
2214,-1640.00
2215,-1600.00
2216,-1520.00
2217,-1480.00
2218,-1400.00
2219,-1360.00
2220,-1320.00
2221,-1280.00
2222,-1200.00
2223,-1160.00
2224,-1000.00
2225,-760.00
2226,-400.00
2227,160.00
2228,640.00
2229,1120.00
2230,1480.00
2231,1960.00
2232,2120.00
2233,2280.00
2234,2200.00
2235,2120.00
2236,1920.00
2237,1920.00
2238,1760.00
2239,1720.00
2240,1520.00
2241,1640.00
2242,1480.00
2243,1480.00
2244,1360.00
2245,1400.00
2246,1320.00
2247,1280.00
2248,1200.00
2249,1120.00
2250,800.00
2251,360.00
2252,-120.00
2253,-600.00
2254,-1080.00
2255,-1480.00
2256,-1840.00
2257,-2080.00
2258,-2240.00
2259,-2200.00
2260,-2080.00
2261,-1960.00
2262,-1840.00
2263,-1760.00
2264,-1640.00
2265,-1600.00
2266,-1560.00
2267,-1480.00
2268,-1400.00
2269,-1360.00
2270,-1320.00
2271,-1320.00
2272,-1200.00
2273,-1160.00
2274,-1040.00
2275,-760.00
2276,-360.00
2277,160.00
2278,640.00
2279,1120.00
2280,1480.00
2281,1920.00
2282,2120.00
2283,2280.00
2284,2200.00
2285,2080.00
2286,1760.00
2287,1440.00
2288,920.00
2289,360.00
2290,-280.00
2291,-680.00
2292,-1200.00
2293,-1640.00
2294,-1920.00
2295,-2120.00
2296,-2200.00
2297,-2080.00
2298,-1840.00
2299,-1600.00
2300,-1160.00
2301,-600.00
2302,0.00
2303,560.00
2304,1000.00
2305,1440.00
2306,1800.00
2307,2080.00
2308,2200.00
2309,2240.00
2310,1960.00
2311,1760.00
2312,1360.00
2313,960.00
2314,320.00
2315,-200.00
2316,-800.00
2317,-1200.00
2318,-1600.00
2319,-1960.00
2320,-2160.00
2321,-2160.00
2322,-2080.00
2323,-1880.00
2324,-1560.00
2325,-1160.00
2326,-680.00
2327,0.00
2328,520.00
2329,1040.00
2330,1400.00
2331,1840.00
2332,2080.00
2333,2240.00
2334,2160.00
2335,2040.00
2336,1760.00
2337,1400.00
2338,880.00
2339,360.00
2340,-240.00
2341,-720.00
2342,-1200.00
2343,-1600.00
2344,-1920.00
2345,-2080.00
2346,-2200.00
2347,-2080.00
2348,-1840.00
2349,-1600.00
2350,-1160.00
2351,-600.00
2352,0.00
2353,560.00
2354,1040.00
2355,1440.00
2356,1800.00
2357,2080.00
2358,2200.00
2359,2240.00
2360,2000.00
2361,1760.00
2362,1360.00
2363,960.00
2364,320.00
2365,-200.00
2366,-800.00
2367,-1200.00
2368,-1600.00
2369,-1920.00
2370,-2160.00
2371,-2160.00
2372,-2080.00
2373,-1880.00
2374,-1520.00
2375,-1160.00
2376,-680.00
2377,0.00
2378,520.00
2379,1040.00
2380,1440.00
2381,1840.00
2382,2080.00
2383,2240.00
2384,2120.00
2385,2040.00
2386,1760.00
2387,1400.00
2388,880.00
2389,360.00
2390,-240.00
2391,-680.00
2392,-1240.00
2393,-1600.00
2394,-1920.00
2395,-2080.00
2396,-2200.00
2397,-2080.00
2398,-1840.00
2399,-1600.00
2400,0.00
2401,560.00
2402,1040.00
2403,1440.00
2404,1800.00
2405,2080.00
2406,2200.00
2407,2240.00
2408,2000.00
2409,1760.00
2410,1360.00
2411,960.00
2412,320.00
2413,-200.00
2414,-800.00
2415,-1200.00
2416,-1600.00
2417,-1920.00
2418,-2160.00
2419,-2160.00
2420,-2080.00
2421,-1880.00
2422,-1560.00
2423,-1160.00
2424,-680.00
2425,0.00
2426,520.00
2427,1040.00
2428,1360.00
2429,1800.00
2430,2080.00
2431,2240.00
2432,2120.00
2433,2040.00
2434,1760.00
2435,1400.00
2436,880.00
2437,360.00
2438,-240.00
2439,-680.00
2440,-1160.00
2441,-1600.00
2442,-1920.00
2443,-2080.00
2444,-2200.00
2445,-2080.00
2446,-1840.00
2447,-1600.00
2448,-1120.00
2449,-600.00
2450,0.00
2451,560.00
2452,960.00
2453,1480.00
2454,1800.00
2455,2080.00
2456,2200.00
2457,2240.00
2458,2040.00
2459,1760.00
2460,1360.00
2461,960.00
2462,320.00
2463,-200.00
2464,-800.00
2465,-1200.00
2466,-1600.00
2467,-1920.00
2468,-2160.00
2469,-2160.00
2470,-2120.00
2471,-1880.00
2472,-1560.00
2473,-1200.00
2474,-680.00
2475,0.00
2476,520.00
2477,1000.00
2478,1400.00
2479,1840.00
2480,2080.00
2481,2240.00
2482,2200.00
2483,2040.00
2484,1680.00
2485,1400.00
2486,880.00
2487,320.00
2488,-240.00
2489,-680.00
2490,-1200.00
2491,-1600.00
2492,-1880.00
2493,-2080.00
2494,-2200.00
2495,-2080.00
2496,-1840.00
2497,-1600.00
2498,-1160.00
2499,-600.00
2500,0.00
2501,560.00
2502,960.00
2503,1440.00
2504,1800.00
2505,2080.00
2506,2200.00
2507,2200.00
2508,2000.00
2509,1760.00
2510,1360.00
2511,960.00
2512,320.00
2513,-200.00
2514,-760.00
2515,-1200.00
2516,-1600.00
2517,-1920.00
2518,-2160.00
2519,-2160.00
2520,-2080.00
2521,-1880.00
2522,-1560.00
2523,-1200.00
2524,-680.00
2525,0.00
2526,520.00
2527,1000.00
2528,1400.00
2529,1840.00
2530,2080.00
2531,2240.00
2532,2160.00
2533,2040.00
2534,1680.00
2535,1440.00
2536,880.00
2537,360.00
2538,-240.00
2539,-720.00
2540,-1200.00
2541,-1600.00
2542,-1880.00
2543,-2080.00
2544,-2200.00
2545,-2080.00
2546,-1840.00
2547,-1600.00
2548,-1160.00
2549,-600.00
2550,0.00
2551,560.00
2552,960.00
2553,1440.00
2554,1800.00
2555,2080.00
2556,2200.00
2557,2240.00
2558,2040.00
2559,1760.00
2560,1360.00
2561,960.00
2562,320.00
2563,-200.00
2564,-760.00
2565,-1200.00
2566,-1600.00
2567,-1920.00
2568,-2160.00
2569,-2160.00
2570,-2080.00
2571,-1880.00
2572,-1560.00
2573,-1160.00
2574,-680.00
2575,0.00
2576,480.00
2577,1040.00
2578,1440.00
2579,1800.00
2580,2080.00
2581,2240.00
2582,2160.00
2583,2040.00
2584,1760.00
2585,1400.00
2586,880.00
2587,360.00
2588,-240.00
2589,-680.00
2590,-1200.00
2591,-1600.00
2592,-1880.00
2593,-2080.00
2594,-2200.00
2595,-2080.00
2596,-1840.00
2597,-1600.00
2598,-1160.00
2599,-600.00
2600,0.00
2601,560.00
2602,1000.00
2603,1440.00
2604,1800.00
2605,2080.00
2606,2200.00
2607,2200.00
2608,2000.00
2609,1760.00
2610,1360.00
2611,960.00
2612,320.00
2613,-200.00
2614,-800.00
2615,-1200.00
2616,-1600.00
2617,-1920.00
2618,-2160.00
2619,-2160.00
2620,-2080.00
2621,-1880.00
2622,-1560.00
2623,-1160.00
2624,-600.00
2625,0.00
2626,480.00
2627,1040.00
2628,1400.00
2629,1800.00
2630,2080.00
2631,2240.00
2632,2160.00
2633,2040.00
2634,1760.00
2635,1440.00
2636,880.00
2637,360.00
2638,-240.00
2639,-680.00
2640,-1200.00
2641,-1600.00
2642,-1880.00
2643,-2080.00
2644,-2200.00
2645,-2080.00
2646,-1840.00
2647,-1560.00
2648,-1160.00
2649,-640.00
2650,0.00
2651,560.00
2652,960.00
2653,1440.00
2654,1800.00
2655,2080.00
2656,2200.00
2657,2200.00
2658,2000.00
2659,1760.00
2660,1320.00
2661,960.00
2662,320.00
2663,-200.00
2664,-760.00
2665,-1200.00
2666,-1600.00
2667,-1920.00
2668,-2160.00
2669,-2160.00
2670,-2120.00
2671,-1880.00
2672,-1560.00
2673,-1160.00
2674,-680.00
2675,0.00
2676,480.00
2677,1000.00
2678,1400.00
2679,1840.00
2680,2080.00
2681,2240.00
2682,2200.00
2683,2040.00
2684,1760.00
2685,1440.00
2686,880.00
2687,360.00
2688,-240.00
2689,-680.00
2690,-1200.00
2691,-1600.00
2692,-1880.00
2693,-2080.00
2694,-2200.00
2695,-2080.00
2696,-1840.00
2697,-1600.00
2698,-1160.00
2699,-600.00
2700,0.00
2701,560.00
2702,960.00
2703,1440.00
2704,1800.00
2705,2080.00
2706,2200.00
2707,2200.00
2708,2000.00
2709,1760.00
2710,1360.00
2711,960.00
2712,320.00
2713,-200.00
2714,-760.00
2715,-1200.00
2716,-1600.00
2717,-1920.00
2718,-2160.00
2719,-2160.00
2720,-2080.00
2721,-1880.00
2722,-1560.00
2723,-1200.00
2724,-680.00
2725,-40.00
2726,480.00
2727,1000.00
2728,1360.00
2729,1800.00
2730,2080.00
2731,2240.00
2732,2160.00
2733,2040.00
2734,1760.00
2735,1400.00
2736,880.00
2737,360.00
2738,-240.00
2739,-680.00
2740,-1200.00
2741,-1600.00
2742,-1920.00
2743,-2080.00
2744,-2200.00
2745,-2080.00
2746,-1840.00
2747,-1600.00
2748,-1160.00
2749,-600.00
2750,0.00
2751,560.00
2752,1000.00
2753,1440.00
2754,1800.00
2755,2080.00
2756,2200.00
2757,2200.00
2758,2000.00
2759,1760.00
2760,1360.00
2761,960.00
2762,320.00
2763,-200.00
2764,-800.00
2765,-1200.00
2766,-1600.00
2767,-1920.00
2768,-2160.00
2769,-2160.00
2770,-2080.00
2771,-1880.00
2772,-1560.00
2773,-1200.00
2774,-680.00
2775,0.00
2776,480.00
2777,1040.00
2778,1400.00
2779,1800.00
2780,2080.00
2781,2240.00
2782,2160.00
2783,2080.00
2784,1680.00
2785,1440.00
2786,880.00
2787,360.00
2788,-240.00
2789,-680.00
2790,-1200.00
2791,-1600.00
2792,-1920.00
2793,-2080.00
2794,-2200.00
2795,-2080.00
2796,-1840.00
2797,-1600.00
2798,-1160.00
2799,-640.00
2800,0.00
2801,560.00
2802,1000.00
2803,1440.00
2804,1800.00
2805,2080.00
2806,2200.00
2807,2240.00
2808,2000.00
2809,1760.00
2810,1360.00
2811,960.00
2812,320.00
2813,-200.00
2814,-840.00
2815,-1200.00
2816,-1600.00
2817,-1920.00
2818,-2160.00
2819,-2200.00
2820,-2080.00
2821,-1880.00
2822,-1560.00
2823,-1200.00
2824,-680.00
2825,0.00
2826,480.00
2827,1000.00
2828,1440.00
2829,1840.00
2830,2080.00
2831,2240.00
2832,2160.00
2833,2040.00
2834,1680.00
2835,1440.00
2836,880.00
2837,360.00
2838,-240.00
2839,-680.00
2840,-1200.00
2841,-1600.00
2842,-1880.00
2843,-2120.00
2844,-2200.00
2845,-2080.00
2846,-1840.00
2847,-1600.00
2848,-1160.00
2849,-600.00
2850,0.00
2851,560.00
2852,1000.00
2853,1440.00
2854,1800.00
2855,2080.00
2856,2200.00
2857,2240.00
2858,2000.00
2859,1760.00
2860,1360.00
2861,960.00
2862,320.00
2863,-200.00
2864,-800.00
2865,-1200.00
2866,-1600.00
2867,-1920.00
2868,-2160.00
2869,-2160.00
2870,-2080.00
2871,-1880.00
2872,-1560.00
2873,-1160.00
2874,-680.00
2875,0.00
2876,560.00
2877,1000.00
2878,1400.00
2879,1800.00
2880,2080.00
2881,2240.00
2882,2160.00
2883,2040.00
2884,1680.00
2885,1400.00
2886,880.00
2887,360.00
2888,-280.00
2889,-720.00
2890,-1200.00
2891,-1600.00
2892,-1880.00
2893,-2120.00
2894,-2200.00
2895,-2080.00
2896,-1840.00
2897,-1600.00
2898,-1160.00
2899,-640.00
2900,0.00
2901,560.00
2902,1000.00
2903,1440.00
2904,1800.00
2905,2080.00
2906,2200.00
2907,2200.00
2908,1960.00
2909,1760.00
2910,1320.00
2911,960.00
2912,320.00
2913,-200.00
2914,-800.00
2915,-1200.00
2916,-1600.00
2917,-1920.00
2918,-2160.00
2919,-2200.00
2920,-2120.00
2921,-1880.00
2922,-1560.00
2923,-1200.00
2924,-680.00
2925,0.00
2926,520.00
2927,1000.00
2928,1440.00
2929,1800.00
2930,2080.00
2931,2240.00
2932,2200.00
2933,2040.00
2934,1680.00
2935,1400.00
2936,880.00
2937,360.00
2938,-240.00
2939,-680.00
2940,-1200.00
2941,-1600.00
2942,-1920.00
2943,-2080.00
2944,-2200.00
2945,-2080.00
2946,-1840.00
2947,-1600.00
2948,-1160.00
2949,-640.00
2950,0.00
2951,560.00
2952,1000.00
2953,1440.00
2954,1800.00
2955,2080.00
2956,2200.00
2957,2200.00
2958,1960.00
2959,1760.00
2960,1360.00
2961,960.00
2962,320.00
2963,-200.00
2964,-800.00
2965,-1200.00
2966,-1600.00
2967,-1920.00
2968,-2160.00
2969,-2160.00
2970,-2080.00
2971,-1880.00
2972,-1560.00
2973,-1200.00
2974,-600.00
2975,0.00
2976,480.00
2977,1000.00
2978,1440.00
2979,1800.00
2980,2080.00
2981,2240.00
2982,2160.00
2983,2040.00
2984,1680.00
2985,1440.00
2986,880.00
2987,360.00
2988,-240.00
2989,-680.00
2990,-1200.00
2991,-1600.00
2992,-1880.00
2993,-2080.00
2994,-2200.00
2995,-2080.00
2996,-1840.00
2997,-1600.00
2998,-1160.00
2999,-600.00
3000,960.00
3001,1440.00
3002,1800.00
3003,2080.00
3004,2200.00
3005,2200.00
3006,2000.00
3007,1760.00
3008,1360.00
3009,960.00
3010,320.00
3011,-200.00
3012,-800.00
3013,-1200.00
3014,-1600.00
3015,-1960.00
3016,-2160.00
3017,-2200.00
3018,-2080.00
3019,-1880.00
3020,-1560.00
3021,-1160.00
3022,-680.00
3023,0.00
3024,520.00
3025,1000.00
3026,1400.00
3027,1840.00
3028,2040.00
3029,2240.00
3030,2160.00
3031,2040.00
3032,1760.00
3033,1400.00
3034,880.00
3035,360.00
3036,-240.00
3037,-680.00
3038,-1200.00
3039,-1600.00
3040,-1880.00
3041,-2080.00
3042,-2200.00
3043,-2080.00
3044,-1840.00
3045,-1600.00
3046,-1160.00
3047,-640.00
3048,0.00
3049,560.00
3050,960.00
3051,1440.00
3052,1800.00
3053,2080.00
3054,2200.00
3055,2240.00
3056,1960.00
3057,1760.00
3058,1360.00
3059,960.00
3060,320.00
3061,-200.00
3062,-800.00
3063,-1200.00
3064,-1600.00
3065,-1920.00
3066,-2160.00
3067,-2160.00
3068,-2120.00
3069,-1880.00
3070,-1560.00
3071,-1200.00
3072,-680.00
3073,0.00
3074,520.00
3075,1040.00
3076,1400.00
3077,1800.00
3078,2080.00
3079,2240.00
3080,2200.00
3081,2040.00
3082,1680.00
3083,1400.00
3084,880.00
3085,360.00
3086,-240.00
3087,-680.00
3088,-1200.00
3089,-1640.00
3090,-1920.00
3091,-2120.00
3092,-2200.00
3093,-2080.00
3094,-1840.00
3095,-1600.00
3096,-1160.00
3097,-600.00
3098,0.00
3099,560.00
3100,1000.00
3101,1480.00
3102,1800.00
3103,2080.00
3104,2200.00
3105,2240.00
3106,2000.00
3107,1760.00
3108,1360.00
3109,960.00
3110,320.00
3111,-200.00
3112,-800.00
3113,-1200.00
3114,-1600.00
3115,-1920.00
3116,-2160.00
3117,-2160.00
3118,-2080.00
3119,-1880.00
3120,-1560.00
3121,-1160.00
3122,-680.00
3123,0.00
3124,520.00
3125,1000.00
3126,1400.00
3127,1800.00
3128,2080.00
3129,2240.00
3130,2120.00
3131,2040.00
3132,1760.00
3133,1400.00
3134,880.00
3135,360.00
3136,-240.00
3137,-720.00
3138,-1200.00
3139,-1640.00
3140,-1880.00
3141,-2120.00
3142,-2200.00
3143,-2080.00
3144,-1840.00
3145,-1600.00
3146,-1120.00
3147,-600.00
3148,0.00
3149,560.00
3150,1000.00
3151,1440.00
3152,1800.00
3153,2080.00
3154,2200.00
3155,2200.00
3156,2040.00
3157,1760.00
3158,1360.00
3159,960.00
3160,320.00
3161,-200.00
3162,-800.00
3163,-1200.00
3164,-1600.00
3165,-1920.00
3166,-2160.00
3167,-2200.00
3168,-2120.00
3169,-1880.00
3170,-1560.00
3171,-1160.00
3172,-680.00
3173,0.00
3174,480.00
3175,1000.00
3176,1440.00
3177,1840.00
3178,2080.00
3179,2200.00
3180,2200.00
3181,2040.00
3182,1760.00
3183,1400.00
3184,880.00
3185,360.00
3186,-240.00
3187,-680.00
3188,-1200.00
3189,-1600.00
3190,-1880.00
3191,-2080.00
3192,-2200.00
3193,-2080.00
3194,-1840.00
3195,-1600.00
3196,-1160.00
3197,-600.00
3198,0.00
3199,560.00
3200,1000.00
3201,1440.00
3202,1800.00
3203,2080.00
3204,2200.00
3205,2200.00
3206,2040.00
3207,1760.00
3208,1360.00
3209,960.00
3210,320.00
3211,-200.00
3212,-800.00
3213,-1200.00
3214,-1600.00
3215,-1920.00
3216,-2160.00
3217,-2160.00
3218,-2120.00
3219,-1880.00
3220,-1560.00
3221,-1160.00
3222,-680.00
3223,0.00
3224,480.00
3225,1040.00
3226,1440.00
3227,1800.00
3228,2080.00
3229,2240.00
3230,2200.00
3231,2040.00
3232,1760.00
3233,1400.00
3234,880.00
3235,320.00
3236,-280.00
3237,-680.00
3238,-1200.00
3239,-1640.00
3240,-1880.00
3241,-2080.00
3242,-2200.00
3243,-2080.00
3244,-1840.00
3245,-1600.00
3246,-1160.00
3247,-600.00
3248,0.00
3249,560.00
3250,1000.00
3251,1440.00
3252,1800.00
3253,2080.00
3254,2200.00
3255,2200.00
3256,2000.00
3257,1760.00
3258,1360.00
3259,960.00
3260,320.00
3261,-200.00
3262,-840.00
3263,-1200.00
3264,-1600.00
3265,-1920.00
3266,-2160.00
3267,-2160.00
3268,-2080.00
3269,-1880.00
3270,-1560.00
3271,-1200.00
3272,-680.00
3273,0.00
3274,480.00
3275,1040.00
3276,1440.00
3277,1800.00
3278,2080.00
3279,2240.00
3280,2120.00
3281,2040.00
3282,1680.00
3283,1440.00
3284,880.00
3285,360.00
3286,-240.00
3287,-720.00
3288,-1200.00
3289,-1640.00
3290,-1880.00
3291,-2120.00
3292,-2200.00
3293,-2080.00
3294,-1840.00
3295,-1600.00
3296,-1160.00
3297,-600.00
3298,0.00
3299,560.00
3300,960.00
3301,1440.00
3302,1800.00
3303,2080.00
3304,2200.00
3305,2200.00
3306,1960.00
3307,1760.00
3308,1360.00
3309,960.00
3310,320.00
3311,-200.00
3312,-800.00
3313,-1200.00
3314,-1600.00
3315,-1920.00
3316,-2160.00
3317,-2160.00
3318,-2120.00
3319,-1880.00
3320,-1560.00
3321,-1200.00
3322,-680.00
3323,0.00
3324,520.00
3325,1040.00
3326,1440.00
3327,1800.00
3328,2080.00
3329,2240.00
3330,2200.00
3331,2040.00
3332,1680.00
3333,1400.00
3334,880.00
3335,360.00
3336,-240.00
3337,-680.00
3338,-1200.00
3339,-1640.00
3340,-1880.00
3341,-2120.00
3342,-2200.00
3343,-2080.00
3344,-1840.00
3345,-1600.00
3346,-1160.00
3347,-600.00
3348,0.00
3349,560.00
3350,960.00
3351,1480.00
3352,1800.00
3353,2080.00
3354,2200.00
3355,2200.00
3356,2000.00
3357,1760.00
3358,1360.00
3359,960.00
3360,320.00
3361,-200.00
3362,-800.00
3363,-1200.00
3364,-1600.00
3365,-1960.00
3366,-2160.00
3367,-2160.00
3368,-2080.00
3369,-1880.00
3370,-1560.00
3371,-1160.00
3372,-680.00
3373,0.00
3374,520.00
3375,1000.00
3376,1400.00
3377,1800.00
3378,2080.00
3379,2240.00
3380,2160.00
3381,2040.00
3382,1760.00
3383,1400.00
3384,880.00
3385,360.00
3386,-240.00
3387,-680.00
3388,-1200.00
3389,-1600.00
3390,-1880.00
3391,-2120.00
3392,-2200.00
3393,-2080.00
3394,-1840.00
3395,-1600.00
3396,-1160.00
3397,-640.00
3398,0.00
3399,560.00
3400,960.00
3401,1440.00
3402,1800.00
3403,2080.00
3404,2200.00
3405,2200.00
3406,1960.00
3407,1760.00
3408,1360.00
3409,960.00
3410,320.00
3411,-200.00
3412,-800.00
3413,-1200.00
3414,-1600.00
3415,-1920.00
3416,-2160.00
3417,-2160.00
3418,-2080.00
3419,-1880.00
3420,-1560.00
3421,-1160.00
3422,-600.00
3423,-40.00
3424,480.00
3425,1000.00
3426,1440.00
3427,1800.00
3428,2080.00
3429,2240.00
3430,2160.00
3431,2040.00
3432,1680.00
3433,1440.00
3434,880.00
3435,360.00
3436,-240.00
3437,-720.00
3438,-1240.00
3439,-1640.00
3440,-1920.00
3441,-2120.00
3442,-2200.00
3443,-2080.00
3444,-1840.00
3445,-1600.00
3446,-1120.00
3447,-600.00
3448,-40.00
3449,560.00
3450,1040.00
3451,1440.00
3452,1800.00
3453,2080.00
3454,2200.00
3455,2200.00
3456,2000.00
3457,1760.00
3458,1360.00
3459,960.00
3460,320.00
3461,-200.00
3462,-800.00
3463,-1200.00
3464,-1600.00
3465,-1920.00
3466,-2160.00
3467,-2160.00
3468,-2080.00
3469,-1880.00
3470,-1560.00
3471,-1200.00
3472,-680.00
3473,0.00
3474,520.00
3475,1000.00
3476,1400.00
3477,1800.00
3478,2080.00
3479,2240.00
3480,2160.00
3481,2040.00
3482,1680.00
3483,1400.00
3484,880.00
3485,320.00
3486,-240.00
3487,-720.00
3488,-1200.00
3489,-1600.00
3490,-1920.00
3491,-2080.00
3492,-2200.00
3493,-2080.00
3494,-1840.00
3495,-1600.00
3496,-1160.00
3497,-600.00
3498,0.00
3499,560.00
3500,1000.00
3501,1480.00
3502,1800.00
3503,2080.00
3504,2200.00
3505,2240.00
3506,2040.00
3507,1960.00
3508,1840.00
3509,1760.00
3510,1640.00
3511,1640.00
3512,1520.00
3513,1560.00
3514,1440.00
3515,1400.00
3516,1360.00
3517,1320.00
3518,1240.00
3519,1200.00
3520,1080.00
3521,840.00
3522,360.00
3523,-80.00
3524,-600.00
3525,-1080.00
3526,-1520.00
3527,-1840.00
3528,-2080.00
3529,-2200.00
3530,-2240.00
3531,-2000.00
3532,-1720.00
3533,-1400.00
3534,-960.00
3535,-320.00
3536,200.00
3537,800.00
3538,1240.00
3539,1640.00
3540,1920.00
3541,2200.00
3542,2200.00
3543,2160.00
3544,1840.00
3545,1640.00
3546,1080.00
3547,640.00
3548,0.00
3549,-440.00
3550,-960.00
3551,-1400.00
3552,-1800.00
3553,-2040.00
3554,-2200.00
3555,-2160.00
3556,-2040.00
3557,-1960.00
3558,-1840.00
3559,-1760.00
3560,-1680.00
3561,-1640.00
3562,-1560.00
3563,-1480.00
3564,-1440.00
3565,-1360.00
3566,-1360.00
3567,-1320.00
3568,-1240.00
3569,-1200.00
3570,-1080.00
3571,-760.00
3572,-360.00
3573,120.00
3574,640.00
3575,1080.00
3576,1520.00
3577,1920.00
3578,2120.00
3579,2240.00
3580,2240.00
3581,2120.00
3582,1920.00
3583,1920.00
3584,1760.00
3585,1680.00
3586,1560.00
3587,1600.00
3588,1480.00
3589,1480.00
3590,1360.00
3591,1360.00
3592,1280.00
3593,1280.00
3594,1200.00
3595,1120.00
3596,800.00
3597,360.00
3598,-120.00
3599,-600.00
3600,-1840.00
3601,-2080.00
3602,-2240.00
3603,-2200.00
3604,-2120.00
3605,-2000.00
3606,-1840.00
3607,-1760.00
3608,-1640.00
3609,-1600.00
3610,-1520.00
3611,-1480.00
3612,-1400.00
3613,-1360.00
3614,-1320.00
3615,-1280.00
3616,-1200.00
3617,-1160.00
3618,-1040.00
3619,-760.00
3620,-400.00
3621,160.00
3622,640.00
3623,1080.00
3624,1480.00
3625,1920.00
3626,2120.00
3627,2280.00
3628,2200.00
3629,2080.00
3630,1760.00
3631,1400.00
3632,880.00
3633,320.00
3634,-280.00
3635,-680.00
3636,-1200.00
3637,-1640.00
3638,-1960.00
3639,-2120.00
3640,-2200.00
3641,-2080.00
3642,-1840.00
3643,-1600.00
3644,-1160.00
3645,-600.00
3646,0.00
3647,560.00
3648,1000.00
3649,1480.00
3650,1800.00
3651,2080.00
3652,2200.00
3653,2200.00
3654,1960.00
3655,1760.00
3656,1360.00
3657,960.00
3658,320.00
3659,-200.00
3660,-840.00
3661,-1240.00
3662,-1600.00
3663,-1960.00
3664,-2160.00
3665,-2160.00
3666,-2080.00
3667,-1880.00
3668,-1520.00
3669,-1160.00
3670,-600.00
3671,0.00
3672,480.00
3673,1040.00
3674,1400.00
3675,1840.00
3676,2080.00
3677,2240.00
3678,2120.00
3679,2080.00
3680,1920.00
3681,1920.00
3682,1680.00
3683,1680.00
3684,1560.00
3685,1600.00
3686,1440.00
3687,1480.00
3688,1360.00
3689,1400.00
3690,1240.00
3691,1320.00
3692,1200.00
3693,1120.00
3694,800.00
3695,360.00
3696,-120.00
3697,-600.00
3698,-1080.00
3699,-1520.00
3700,-1840.00
3701,-2080.00
3702,-2240.00
3703,-2200.00
3704,-2080.00
3705,-2000.00
3706,-1840.00
3707,-1760.00
3708,-1640.00
3709,-1640.00
3710,-1520.00
3711,-1480.00
3712,-1400.00
3713,-1360.00
3714,-1320.00
3715,-1280.00
3716,-1200.00
3717,-1160.00
3718,-1040.00
3719,-760.00
3720,-400.00
3721,160.00
3722,640.00
3723,1120.00
3724,1480.00
3725,1920.00
3726,2120.00
3727,2280.00
3728,2200.00
3729,2120.00
3730,1920.00
3731,1920.00
3732,1760.00
3733,1680.00
3734,1520.00
3735,1600.00
3736,1480.00
3737,1480.00
3738,1360.00
3739,1360.00
3740,1280.00
3741,1280.00
3742,1200.00
3743,1120.00
3744,800.00
3745,360.00
3746,-120.00
3747,-600.00
3748,-1120.00
3749,-1480.00
3750,-1840.00
3751,-2080.00
3752,-2240.00
3753,-2200.00
3754,-2120.00
3755,-1960.00
3756,-1840.00
3757,-1800.00
3758,-1680.00
3759,-1640.00
3760,-1560.00
3761,-1480.00
3762,-1400.00
3763,-1360.00
3764,-1320.00
3765,-1280.00
3766,-1200.00
3767,-1160.00
3768,-1040.00
3769,-760.00
3770,-360.00
3771,160.00
3772,640.00
3773,1120.00
3774,1480.00
3775,1920.00
3776,2120.00
3777,2280.00
3778,2200.00
3779,2120.00
3780,1920.00
3781,1920.00
3782,1760.00
3783,1680.00
3784,1520.00
3785,1600.00
3786,1480.00
3787,1480.00
3788,1360.00
3789,1360.00
3790,1280.00
3791,1280.00
3792,1200.00
3793,1080.00
3794,800.00
3795,360.00
3796,-120.00
3797,-600.00
3798,-1120.00
3799,-1520.00
3800,-1840.00
3801,-2080.00
3802,-2240.00
3803,-2200.00
3804,-2080.00
3805,-1960.00
3806,-1840.00
3807,-1760.00
3808,-1640.00
3809,-1600.00
3810,-1560.00
3811,-1480.00
3812,-1440.00
3813,-1360.00
3814,-1320.00
3815,-1280.00
3816,-1240.00
3817,-1160.00
3818,-1040.00
3819,-760.00
3820,-360.00
3821,160.00
3822,640.00
3823,1120.00
3824,1520.00
3825,1920.00
3826,2160.00
3827,2280.00
3828,2200.00
3829,2080.00
3830,1680.00
3831,1440.00
3832,880.00
3833,360.00
3834,-280.00
3835,-720.00
3836,-1200.00
3837,-1640.00
3838,-1920.00
3839,-2120.00
3840,-2200.00
3841,-2080.00
3842,-1840.00
3843,-1560.00
3844,-1160.00
3845,-600.00
3846,0.00
3847,560.00
3848,1000.00
3849,1480.00
3850,1800.00
3851,2080.00
3852,2200.00
3853,2200.00
3854,1960.00
3855,1760.00
3856,1360.00
3857,960.00
3858,320.00
3859,-200.00
3860,-800.00
3861,-1200.00
3862,-1600.00
3863,-1960.00
3864,-2160.00
3865,-2200.00
3866,-2080.00
3867,-1880.00
3868,-1560.00
3869,-1160.00
3870,-680.00
3871,0.00
3872,520.00
3873,1000.00
3874,1440.00
3875,1800.00
3876,2080.00
3877,2240.00
3878,2120.00
3879,2080.00
3880,1920.00
3881,1920.00
3882,1760.00
3883,1680.00
3884,1560.00
3885,1600.00
3886,1480.00
3887,1480.00
3888,1400.00
3889,1360.00
3890,1240.00
3891,1280.00
3892,1200.00
3893,1120.00
3894,800.00
3895,360.00
3896,-120.00
3897,-600.00
3898,-1120.00
3899,-1480.00
3900,-1840.00
3901,-2080.00
3902,-2240.00
3903,-2200.00
3904,-2040.00
3905,-1760.00
3906,-1400.00
3907,-880.00
3908,-360.00
3909,240.00
3910,800.00
3911,1240.00
3912,1640.00
3913,1960.00
3914,2120.00
3915,2240.00
3916,2120.00
3917,1960.00
3918,1480.00
3919,1200.00
3920,640.00
3921,80.00
3922,-520.00
3923,-1000.00
3924,-1400.00
3925,-1760.00
3926,-2080.00
3927,-2160.00
3928,-2160.00
3929,-2000.00
3930,-1720.00
3931,-1360.00
3932,-920.00
3933,-320.00
3934,200.00
3935,760.00
3936,1240.00
3937,1640.00
3938,1920.00
3939,2160.00
3940,2200.00
3941,2120.00
3942,1800.00
3943,1600.00
3944,1120.00
3945,640.00
3946,0.00
3947,-480.00
3948,-960.00
3949,-1400.00
3950,-1800.00
3951,-2040.00
3952,-2200.00
3953,-2160.00
3954,-2000.00
3955,-1720.00
3956,-1360.00
3957,-880.00
3958,-360.00
3959,240.00
3960,760.00
3961,1240.00
3962,1600.00
3963,1960.00
3964,2120.00
3965,2240.00
3966,2120.00
3967,1960.00
3968,1480.00
3969,1200.00
3970,640.00
3971,80.00
3972,-520.00
3973,-960.00
3974,-1400.00
3975,-1760.00
3976,-2080.00
3977,-2160.00
3978,-2160.00
3979,-2000.00
3980,-1920.00
3981,-1880.00
3982,-1760.00
3983,-1680.00
3984,-1560.00
3985,-1520.00
3986,-1480.00
3987,-1440.00
3988,-1400.00
3989,-1360.00
3990,-1280.00
3991,-1240.00
3992,-1160.00
3993,-1080.00
3994,-840.00
3995,-360.00
3996,120.00
3997,640.00
3998,1080.00
3999,1520.00
4000,1920.00
4001,2160.00
4002,2240.00
4003,2280.00
4004,2040.00
4005,1960.00
4006,1800.00
4007,1800.00
4008,1640.00
4009,1640.00
4010,1520.00
4011,1560.00
4012,1440.00
4013,1400.00
4014,1360.00
4015,1320.00
4016,1200.00
4017,1200.00
4018,1040.00
4019,840.00
4020,360.00
4021,-80.00
4022,-600.00
4023,-1080.00
4024,-1480.00
4025,-1840.00
4026,-2120.00
4027,-2200.00
4028,-2240.00
4029,-2000.00
4030,-1720.00
4031,-1440.00
4032,-960.00
4033,-360.00
4034,200.00
4035,800.00
4036,1200.00
4037,1640.00
4038,1960.00
4039,2160.00
4040,2200.00
4041,2160.00
4042,1800.00
4043,1640.00
4044,1200.00
4045,680.00
4046,0.00
4047,-440.00
4048,-960.00
4049,-1360.00
4050,-1760.00
4051,-2040.00
4052,-2200.00
4053,-2160.00
4054,-2040.00
4055,-1920.00
4056,-1840.00
4057,-1760.00
4058,-1680.00
4059,-1640.00
4060,-1560.00
4061,-1480.00
4062,-1400.00
4063,-1360.00
4064,-1320.00
4065,-1320.00
4066,-1200.00
4067,-1200.00
4068,-1040.00
4069,-760.00
4070,-400.00
4071,120.00
4072,640.00
4073,1080.00
4074,1480.00
4075,1920.00
4076,2120.00
4077,2280.00
4078,2200.00
4079,2120.00
4080,1920.00
4081,1920.00
4082,1760.00
4083,1680.00
4084,1560.00
4085,1600.00
4086,1480.00
4087,1480.00
4088,1360.00
4089,1360.00
4090,1280.00
4091,1280.00
4092,1200.00
4093,1120.00
4094,800.00
4095,360.00
4096,-80.00
4097,-600.00
4098,-1080.00
4099,-1480.00
4100,-1840.00
4101,-2080.00
4102,-2240.00
4103,-2200.00
4104,-2120.00
4105,-1960.00
4106,-1840.00
4107,-1760.00
4108,-1640.00
4109,-1600.00
4110,-1520.00
4111,-1480.00
4112,-1440.00
4113,-1360.00
4114,-1360.00
4115,-1320.00
4116,-1200.00
4117,-1160.00
4118,-1040.00
4119,-760.00
4120,-400.00
4121,120.00
4122,640.00
4123,1080.00
4124,1480.00
4125,1920.00
4126,2120.00
4127,2280.00
4128,2200.00
4129,2080.00
4130,1760.00
4131,1440.00
4132,880.00
4133,360.00
4134,-240.00
4135,-680.00
4136,-1200.00
4137,-1640.00
4138,-2000.00
4139,-2120.00
4140,-2200.00
4141,-2080.00
4142,-1840.00
4143,-1600.00
4144,-1160.00
4145,-640.00
4146,-40.00
4147,560.00
4148,960.00
4149,1440.00
4150,1760.00
4151,2080.00
4152,2200.00
4153,2240.00
4154,2040.00
4155,1960.00
4156,1800.00
4157,1760.00
4158,1640.00
4159,1640.00
4160,1520.00
4161,1560.00
4162,1440.00
4163,1400.00
4164,1360.00
4165,1320.00
4166,1240.00
4167,1240.00
4168,1080.00
4169,880.00
4170,360.00
4171,-80.00
4172,-560.00
4173,-1040.00
4174,-1480.00
4175,-1880.00
4176,-2120.00
4177,-2240.00
4178,-2240.00
4179,-2040.00
4180,-1960.00
4181,-1880.00
4182,-1800.00
4183,-1680.00
4184,-1600.00
4185,-1560.00
4186,-1480.00
4187,-1440.00
4188,-1360.00
4189,-1360.00
4190,-1280.00
4191,-1240.00
4192,-1160.00
4193,-1080.00
4194,-840.00
4195,-360.00
4196,160.00
4197,640.00
4198,1080.00
4199,1560.00
4200,2240.00
4201,2280.00
4202,2080.00
4203,1960.00
4204,1840.00
4205,1800.00
4206,1640.00
4207,1640.00
4208,1520.00
4209,1560.00
4210,1440.00
4211,1400.00
4212,1320.00
4213,1320.00
4214,1200.00
4215,1240.00
4216,1080.00
4217,840.00
4218,360.00
4219,-80.00
4220,-600.00
4221,-1080.00
4222,-1480.00
4223,-1840.00
4224,-2120.00
4225,-2240.00
4226,-2240.00
4227,-2000.00
4228,-1720.00
4229,-1400.00
4230,-960.00
4231,-360.00
4232,200.00
4233,800.00
4234,1200.00
4235,1640.00
4236,1920.00
4237,2160.00
4238,2200.00
4239,2160.00
4240,1800.00
4241,1640.00
4242,1200.00
4243,680.00
4244,40.00
4245,-440.00
4246,-960.00
4247,-1360.00
4248,-1760.00
4249,-2040.00
4250,-2200.00
4251,-2160.00
4252,-2040.00
4253,-1920.00
4254,-1840.00
4255,-1760.00
4256,-1720.00
4257,-1640.00
4258,-1560.00
4259,-1480.00
4260,-1440.00
4261,-1360.00
4262,-1360.00
4263,-1320.00
4264,-1240.00
4265,-1160.00
4266,-1080.00
4267,-800.00
4268,-400.00
4269,120.00
4270,640.00
4271,1080.00
4272,1480.00
4273,1920.00
4274,2120.00
4275,2280.00
4276,2240.00
4277,2120.00
4278,1760.00
4279,1440.00
4280,920.00
4281,360.00
4282,-240.00
4283,-680.00
4284,-1200.00
4285,-1600.00
4286,-1920.00
4287,-2120.00
4288,-2200.00
4289,-2080.00
4290,-1840.00
4291,-1600.00
4292,-1160.00
4293,-640.00
4294,0.00
4295,520.00
4296,960.00
4297,1440.00
4298,1800.00
4299,2080.00
4300,2200.00
4301,2240.00
4302,1960.00
4303,1760.00
4304,1360.00
4305,960.00
4306,320.00
4307,-200.00
4308,-760.00
4309,-1200.00
4310,-1600.00
4311,-1920.00
4312,-2160.00
4313,-2160.00
4314,-2080.00
4315,-1880.00
4316,-1560.00
4317,-1200.00
4318,-680.00
4319,-40.00
4320,480.00
4321,1000.00
4322,1400.00
4323,1800.00
4324,2080.00
4325,2240.00
4326,2160.00
4327,2040.00
4328,1760.00
4329,1440.00
4330,920.00
4331,360.00
4332,-240.00
4333,-680.00
4334,-1200.00
4335,-1560.00
4336,-1920.00
4337,-2080.00
4338,-2200.00
4339,-2080.00
4340,-1840.00
4341,-1560.00
4342,-1160.00
4343,-640.00
4344,0.00
4345,520.00
4346,1000.00
4347,1440.00
4348,1800.00
4349,2080.00
4350,2200.00
4351,2200.00
4352,2000.00
4353,1760.00
4354,1360.00
4355,960.00
4356,320.00
4357,-200.00
4358,-840.00
4359,-1200.00
4360,-1600.00
4361,-1920.00
4362,-2160.00
4363,-2160.00
4364,-2080.00
4365,-1880.00
4366,-1560.00
4367,-1200.00
4368,-680.00
4369,0.00
4370,480.00
4371,1040.00
4372,1400.00
4373,1800.00
4374,2080.00
4375,2240.00
4376,2160.00
4377,2040.00
4378,1680.00
4379,1400.00
4380,880.00
4381,360.00
4382,-240.00
4383,-680.00
4384,-1200.00
4385,-1600.00
4386,-1880.00
4387,-2120.00
4388,-2200.00
4389,-2080.00
4390,-1840.00
4391,-1600.00
4392,-1160.00
4393,-640.00
4394,0.00
4395,560.00
4396,960.00
4397,1440.00
4398,1800.00
4399,2080.00
4400,2200.00
4401,2200.00
4402,1960.00
4403,1760.00
4404,1360.00
4405,960.00
4406,320.00
4407,-200.00
4408,-760.00
4409,-1200.00
4410,-1600.00
4411,-1920.00
4412,-2160.00
4413,-2160.00
4414,-2080.00
4415,-1880.00
4416,-1560.00
4417,-1200.00
4418,-680.00
4419,0.00
4420,480.00
4421,1040.00
4422,1400.00
4423,1800.00
4424,2080.00
4425,2240.00
4426,2160.00
4427,2040.00
4428,1680.00
4429,1440.00
4430,880.00
4431,360.00
4432,-240.00
4433,-680.00
4434,-1200.00
4435,-1560.00
4436,-1920.00
4437,-2120.00
4438,-2200.00
4439,-2080.00
4440,-1840.00
4441,-1600.00
4442,-1160.00
4443,-600.00
4444,0.00
4445,560.00
4446,1000.00
4447,1440.00
4448,1800.00
4449,2080.00
4450,2200.00
4451,2200.00
4452,2040.00
4453,1960.00
4454,1800.00
4455,1760.00
4456,1640.00
4457,1640.00
4458,1520.00
4459,1560.00
4460,1440.00
4461,1440.00
4462,1320.00
4463,1320.00
4464,1240.00
4465,1240.00
4466,1080.00
4467,880.00
4468,360.00
4469,-80.00
4470,-560.00
4471,-1040.00
4472,-1480.00
4473,-1840.00
4474,-2120.00
4475,-2240.00
4476,-2240.00
4477,-2040.00
4478,-1960.00
4479,-1880.00
4480,-1800.00
4481,-1680.00
4482,-1600.00
4483,-1560.00
4484,-1480.00
4485,-1440.00
4486,-1360.00
4487,-1360.00
4488,-1280.00
4489,-1240.00
4490,-1160.00
4491,-1040.00
4492,-840.00
4493,-360.00
4494,120.00
4495,640.00
4496,1080.00
4497,1560.00
4498,1920.00
4499,2160.00
4500,2240.00
4501,2280.00
4502,2040.00
4503,1960.00
4504,1840.00
4505,1800.00
4506,1640.00
4507,1640.00
4508,1520.00
4509,1560.00
4510,1440.00
4511,1400.00
4512,1360.00
4513,1320.00
4514,1200.00
4515,1240.00
4516,1080.00
4517,840.00
4518,360.00
4519,-80.00
4520,-600.00
4521,-1040.00
4522,-1480.00
4523,-1880.00
4524,-2120.00
4525,-2240.00
4526,-2240.00
4527,-2040.00
4528,-1960.00
4529,-1880.00
4530,-1800.00
4531,-1680.00
4532,-1600.00
4533,-1560.00
4534,-1480.00
4535,-1440.00
4536,-1360.00
4537,-1360.00
4538,-1280.00
4539,-1240.00
4540,-1160.00
4541,-1040.00
4542,-840.00
4543,-360.00
4544,120.00
4545,640.00
4546,1080.00
4547,1560.00
4548,1920.00
4549,2160.00
4550,2240.00
4551,2280.00
4552,2040.00
4553,1760.00
4554,1360.00
4555,960.00
4556,320.00
4557,-200.00
4558,-760.00
4559,-1200.00
4560,-1600.00
4561,-1920.00
4562,-2160.00
4563,-2200.00
4564,-2120.00
4565,-1880.00
4566,-1560.00
4567,-1200.00
4568,-680.00
4569,-40.00
4570,480.00
4571,1000.00
4572,1440.00
4573,1840.00
4574,2080.00
4575,2240.00
4576,2200.00
4577,2040.00
4578,1760.00
4579,1400.00
4580,880.00
4581,360.00
4582,-240.00
4583,-680.00
4584,-1200.00
4585,-1600.00
4586,-1880.00
4587,-2120.00
4588,-2200.00
4589,-2080.00
4590,-1840.00
4591,-1600.00
4592,-1160.00
4593,-600.00
4594,0.00
4595,560.00
4596,1000.00
4597,1480.00
4598,1800.00
4599,2080.00
4600,2200.00
4601,2200.00
4602,2000.00
4603,1760.00
4604,1360.00
4605,960.00
4606,320.00
4607,-200.00
4608,-800.00
4609,-1200.00
4610,-1600.00
4611,-1920.00
4612,-2160.00
4613,-2160.00
4614,-2080.00
4615,-1880.00
4616,-1560.00
4617,-1160.00
4618,-600.00
4619,0.00
4620,480.00
4621,1000.00
4622,1400.00
4623,1840.00
4624,2080.00
4625,2240.00
4626,2160.00
4627,2080.00
4628,1920.00
4629,1920.00
4630,1680.00
4631,1680.00
4632,1560.00
4633,1600.00
4634,1480.00
4635,1480.00
4636,1400.00
4637,1400.00
4638,1320.00
4639,1320.00
4640,1200.00
4641,1120.00
4642,800.00
4643,400.00
4644,-80.00
4645,-600.00
4646,-1040.00
4647,-1480.00
4648,-1840.00
4649,-2080.00
4650,-2240.00
4651,-2200.00
4652,-2120.00
4653,-1960.00
4654,-1840.00
4655,-1760.00
4656,-1640.00
4657,-1600.00
4658,-1560.00
4659,-1480.00
4660,-1400.00
4661,-1360.00
4662,-1320.00
4663,-1320.00
4664,-1200.00
4665,-1160.00
4666,-1040.00
4667,-760.00
4668,-360.00
4669,160.00
4670,640.00
4671,1120.00
4672,1480.00
4673,1920.00
4674,2120.00
4675,2280.00
4676,2200.00
4677,2120.00
4678,1920.00
4679,1920.00
4680,1760.00
4681,1680.00
4682,1520.00
4683,1640.00
4684,1480.00
4685,1480.00
4686,1360.00
4687,1360.00
4688,1320.00
4689,1280.00
4690,1200.00
4691,1120.00
4692,800.00
4693,360.00
4694,-120.00
4695,-600.00
4696,-1120.00
4697,-1480.00
4698,-1840.00
4699,-2080.00
4700,-2240.00
4701,-2200.00
4702,-2040.00
4703,-1800.00
4704,-1400.00
4705,-880.00
4706,-320.00
4707,240.00
4708,800.00
4709,1240.00
4710,1640.00
4711,1960.00
4712,2120.00
4713,2240.00
4714,2120.00
4715,1960.00
4716,1520.00
4717,1240.00
4718,600.00
4719,80.00
4720,-520.00
4721,-960.00
4722,-1400.00
4723,-1800.00
4724,-2080.00
4725,-2160.00
4726,-2160.00
4727,-2000.00
4728,-1720.00
4729,-1360.00
4730,-920.00
4731,-320.00
4732,240.00
4733,800.00
4734,1240.00
4735,1640.00
4736,1920.00
4737,2160.00
4738,2200.00
4739,2120.00
4740,1840.00
4741,1640.00
4742,1160.00
4743,680.00
4744,0.00
4745,-480.00
4746,-1000.00
4747,-1400.00
4748,-1800.00
4749,-2040.00
4750,-2200.00
4751,-2160.00
4752,-2000.00
4753,-1760.00
4754,-1360.00
4755,-880.00
4756,-320.00
4757,240.00
4758,760.00
4759,1240.00
4760,1640.00
4761,1960.00
4762,2120.00
4763,2240.00
4764,2120.00
4765,1920.00
4766,1520.00
4767,1200.00
4768,600.00
4769,80.00
4770,-520.00
4771,-960.00
4772,-1400.00
4773,-1800.00
4774,-2040.00
4775,-2160.00
4776,-2160.00
4777,-2000.00
4778,-1920.00
4779,-1880.00
4780,-1760.00
4781,-1680.00
4782,-1560.00
4783,-1520.00
4784,-1480.00
4785,-1440.00
4786,-1400.00
4787,-1360.00
4788,-1280.00
4789,-1240.00
4790,-1160.00
4791,-1080.00
4792,-840.00
4793,-360.00
4794,160.00
4795,640.00
4796,1080.00
4797,1520.00
4798,1880.00
4799,2160.00
4800,2080.00
4801,1960.00
4802,1840.00
4803,1760.00
4804,1640.00
4805,1640.00
4806,1520.00
4807,1560.00
4808,1440.00
4809,1400.00
4810,1360.00
4811,1320.00
4812,1200.00
4813,1200.00
4814,1080.00
4815,880.00
4816,360.00
4817,-80.00
4818,-600.00
4819,-1080.00
4820,-1520.00
4821,-1840.00
4822,-2120.00
4823,-2240.00
4824,-2240.00
4825,-2000.00
4826,-1720.00
4827,-1400.00
4828,-960.00
4829,-360.00
4830,200.00
4831,800.00
4832,1240.00
4833,1640.00
4834,1960.00
4835,2160.00
4836,2200.00
4837,2160.00
4838,1800.00
4839,1600.00
4840,1160.00
4841,640.00
4842,0.00
4843,-440.00
4844,-960.00
4845,-1360.00
4846,-1800.00
4847,-2040.00
4848,-2200.00
4849,-2160.00
4850,-2040.00
4851,-1760.00
4852,-1360.00
4853,-880.00
4854,-400.00
4855,240.00
4856,760.00
4857,1240.00
4858,1640.00
4859,1960.00
4860,2120.00
4861,2240.00
4862,2120.00
4863,1920.00
4864,1480.00
4865,1200.00
4866,640.00
4867,80.00
4868,-520.00
4869,-960.00
4870,-1400.00
4871,-1800.00
4872,-2040.00
4873,-2160.00
4874,-2160.00
4875,-2000.00
4876,-1720.00
4877,-1400.00
4878,-920.00
4879,-360.00
4880,240.00
4881,800.00
4882,1240.00
4883,1640.00
4884,1960.00
4885,2160.00
4886,2200.00
4887,2120.00
4888,1800.00
4889,1600.00
4890,1200.00
4891,640.00
4892,40.00
4893,-480.00
4894,-960.00
4895,-1400.00
4896,-1800.00
4897,-2040.00
4898,-2200.00
4899,-2160.00
4900,-2000.00
4901,-1720.00
4902,-1360.00
4903,-880.00
4904,-320.00
4905,240.00
4906,760.00
4907,1240.00
4908,1600.00
4909,1960.00
4910,2120.00
4911,2240.00
4912,2120.00
4913,1920.00
4914,1520.00
4915,1200.00
4916,600.00
4917,80.00
4918,-520.00
4919,-1000.00
4920,-1440.00
4921,-1760.00
4922,-2080.00
4923,-2160.00
4924,-2160.00
4925,-2000.00
4926,-1920.00
4927,-1880.00
4928,-1760.00
4929,-1680.00
4930,-1600.00
4931,-1520.00
4932,-1440.00
4933,-1440.00
4934,-1400.00
4935,-1360.00
4936,-1280.00
4937,-1240.00
4938,-1160.00
4939,-1040.00
4940,-840.00
4941,-360.00
4942,120.00
4943,640.00
4944,1080.00
4945,1560.00
4946,1920.00
4947,2160.00
4948,2240.00
4949,2280.00
4950,2040.00
4951,1800.00
4952,1360.00
4953,960.00
4954,320.00
4955,-200.00
4956,-800.00
4957,-1200.00
4958,-1600.00
4959,-1920.00
4960,-2160.00
4961,-2200.00
4962,-2120.00
4963,-1880.00
4964,-1560.00
4965,-1160.00
4966,-680.00
4967,0.00
4968,520.00
4969,1040.00
4970,1440.00
4971,1800.00
4972,2080.00
4973,2240.00
4974,2200.00
4975,2080.00
4976,1920.00
4977,1920.00
4978,1760.00
4979,1680.00
4980,1560.00
4981,1640.00
4982,1480.00
4983,1480.00
4984,1400.00
4985,1360.00
4986,1320.00
4987,1280.00
4988,1200.00
4989,1120.00
4990,800.00
4991,360.00
4992,-80.00
4993,-600.00
4994,-1120.00
4995,-1480.00
4996,-1800.00
4997,-2080.00
4998,-2240.00
4999,-2200.00
5000,-2040.00
5001,-1760.00
5002,-1400.00
5003,-880.00
5004,-320.00
5005,240.00
5006,760.00
5007,1280.00
5008,1640.00
5009,1960.00
5010,2120.00
5011,2240.00
5012,2120.00
5013,1920.00
5014,1480.00
5015,1200.00
5016,600.00
5017,80.00
5018,-520.00
5019,-960.00
5020,-1400.00
5021,-1800.00
5022,-2040.00
5023,-2200.00
5024,-2160.00
5025,-2000.00
5026,-1720.00
5027,-1360.00
5028,-920.00
5029,-320.00
5030,240.00
5031,800.00
5032,1240.00
5033,1640.00
5034,1920.00
5035,2160.00
5036,2200.00
5037,2120.00
5038,1800.00
5039,1600.00
5040,1120.00
5041,640.00
5042,0.00
5043,-440.00
5044,-1000.00
5045,-1360.00
5046,-1800.00
5047,-2040.00
5048,-2200.00
5049,-2160.00
5050,-2000.00
5051,-1720.00
5052,-1360.00
5053,-840.00
5054,-320.00
5055,240.00
5056,800.00
5057,1280.00
5058,1640.00
5059,1960.00
5060,2120.00
5061,2240.00
5062,2080.00
5063,1920.00
5064,1480.00
5065,1200.00
5066,600.00
5067,80.00
5068,-520.00
5069,-960.00
5070,-1440.00
5071,-1800.00
5072,-2080.00
5073,-2160.00
5074,-2160.00
5075,-2000.00
5076,-1720.00
5077,-1360.00
5078,-920.00
5079,-320.00
5080,240.00
5081,800.00
5082,1240.00
5083,1640.00
5084,1920.00
5085,2160.00
5086,2200.00
5087,2120.00
5088,1840.00
5089,1600.00
5090,1120.00
5091,640.00
5092,0.00
5093,-480.00
5094,-1000.00
5095,-1400.00
5096,-1800.00
5097,-2040.00
5098,-2200.00
5099,-2160.00
5100,-2000.00
5101,-1760.00
5102,-1360.00
5103,-880.00
5104,-320.00
5105,280.00
5106,760.00
5107,1240.00
5108,1640.00
5109,1960.00
5110,2120.00
5111,2240.00
5112,2120.00
5113,1920.00
5114,1520.00
5115,1200.00
5116,560.00
5117,40.00
5118,-520.00
5119,-960.00
5120,-1440.00
5121,-1800.00
5122,-2040.00
5123,-2160.00
5124,-2160.00
5125,-2000.00
5126,-1720.00
5127,-1360.00
5128,-920.00
5129,-320.00
5130,240.00
5131,800.00
5132,1240.00
5133,1640.00
5134,1920.00
5135,2200.00
5136,2200.00
5137,2120.00
5138,1800.00
5139,1600.00
5140,1120.00
5141,640.00
5142,0.00
5143,-480.00
5144,-960.00
5145,-1400.00
5146,-1800.00
5147,-2040.00
5148,-2200.00
5149,-2160.00
5150,-2040.00
5151,-1720.00
5152,-1320.00
5153,-840.00
5154,-320.00
5155,280.00
5156,760.00
5157,1280.00
5158,1640.00
5159,1960.00
5160,2120.00
5161,2240.00
5162,2080.00
5163,1920.00
5164,1520.00
5165,1200.00
5166,600.00
5167,80.00
5168,-520.00
5169,-1000.00
5170,-1400.00
5171,-1800.00
5172,-2080.00
5173,-2160.00
5174,-2160.00
5175,-2000.00
5176,-1720.00
5177,-1360.00
5178,-920.00
5179,-320.00
5180,240.00
5181,800.00
5182,1240.00
5183,1640.00
5184,1920.00
5185,2200.00
5186,2200.00
5187,2120.00
5188,1800.00
5189,1640.00
5190,1080.00
5191,640.00
5192,0.00
5193,-480.00
5194,-960.00
5195,-1400.00
5196,-1800.00
5197,-2040.00
5198,-2200.00
5199,-2160.00
5200,-2000.00
5201,-1720.00
5202,-1360.00
5203,-840.00
5204,-320.00
5205,280.00
5206,760.00
5207,1280.00
5208,1640.00
5209,1960.00
5210,2120.00
5211,2240.00
5212,2080.00
5213,1920.00
5214,1520.00
5215,1200.00
5216,600.00
5217,40.00
5218,-520.00
5219,-960.00
5220,-1400.00
5221,-1800.00
5222,-2080.00
5223,-2160.00
5224,-2160.00
5225,-2000.00
5226,-1720.00
5227,-1360.00
5228,-920.00
5229,-320.00
5230,280.00
5231,800.00
5232,1240.00
5233,1640.00
5234,1920.00
5235,2160.00
5236,2200.00
5237,2120.00
5238,1800.00
5239,1640.00
5240,1080.00
5241,640.00
5242,0.00
5243,-480.00
5244,-1000.00
5245,-1400.00
5246,-1800.00
5247,-2040.00
5248,-2200.00
5249,-2160.00
5250,-2000.00
5251,-1720.00
5252,-1360.00
5253,-840.00
5254,-320.00
5255,280.00
5256,760.00
5257,1280.00
5258,1640.00
5259,1960.00
5260,2120.00
5261,2240.00
5262,2080.00
5263,1920.00
5264,1520.00
5265,1200.00
5266,600.00
5267,40.00
5268,-520.00
5269,-960.00
5270,-1400.00
5271,-1800.00
5272,-2080.00
5273,-2160.00
5274,-2160.00
5275,-2000.00
5276,-1720.00
5277,-1400.00
5278,-920.00
5279,-320.00
5280,280.00
5281,800.00
5282,1240.00
5283,1640.00
5284,1920.00
5285,2160.00
5286,2200.00
5287,2120.00
5288,1800.00
5289,1600.00
5290,1080.00
5291,640.00
5292,0.00
5293,-480.00
5294,-960.00
5295,-1400.00
5296,-1760.00
5297,-2040.00
5298,-2200.00
5299,-2160.00
5300,-2040.00
5301,-1960.00
5302,-1800.00
5303,-1760.00
5304,-1640.00
5305,-1640.00
5306,-1560.00
5307,-1480.00
5308,-1400.00
5309,-1360.00
5310,-1320.00
5311,-1320.00
5312,-1200.00
5313,-1160.00
5314,-1000.00
5315,-760.00
5316,-360.00
5317,160.00
5318,640.00
5319,1120.00
5320,1480.00
5321,1920.00
5322,2120.00
5323,2280.00
5324,2200.00
5325,2080.00
5326,1920.00
5327,1920.00
5328,1760.00
5329,1680.00
5330,1520.00
5331,1600.00
5332,1480.00
5333,1480.00
5334,1360.00
5335,1360.00
5336,1280.00
5337,1280.00
5338,1200.00
5339,1080.00
5340,800.00
5341,360.00
5342,-120.00
5343,-600.00
5344,-1120.00
5345,-1480.00
5346,-1840.00
5347,-2080.00
5348,-2240.00
5349,-2200.00
5350,-2040.00
5351,-1760.00
5352,-1400.00
5353,-880.00
5354,-320.00
5355,240.00
5356,800.00
5357,1240.00
5358,1640.00
5359,1960.00
5360,2120.00
5361,2240.00
5362,2120.00
5363,1920.00
5364,1480.00
5365,1200.00
5366,600.00
5367,80.00
5368,-520.00
5369,-960.00
5370,-1400.00
5371,-1800.00
5372,-2080.00
5373,-2160.00
5374,-2160.00
5375,-2000.00
5376,-1720.00
5377,-1360.00
5378,-920.00
5379,-320.00
5380,280.00
5381,800.00
5382,1240.00
5383,1640.00
5384,1920.00
5385,2160.00
5386,2200.00
5387,2120.00
5388,1840.00
5389,1600.00
5390,1120.00
5391,640.00
5392,0.00
5393,-480.00
5394,-1000.00
5395,-1400.00
5396,-1800.00
5397,-2040.00
5398,-2200.00
5399,-2160.00
5400,-1360.00
5401,-880.00
5402,-320.00
5403,280.00
5404,760.00
5405,1280.00
5406,1640.00
5407,1960.00
5408,2120.00
5409,2240.00
5410,2080.00
5411,1920.00
5412,1520.00
5413,1200.00
5414,600.00
5415,80.00
5416,-520.00
5417,-960.00
5418,-1400.00
5419,-1800.00
5420,-2080.00
5421,-2160.00
5422,-2160.00
5423,-2000.00
5424,-1720.00
5425,-1360.00
5426,-920.00
5427,-320.00
5428,240.00
5429,760.00
5430,1240.00
5431,1640.00
5432,1920.00
5433,2160.00
5434,2200.00
5435,2120.00
5436,1800.00
5437,1600.00
5438,1120.00
5439,640.00
5440,0.00
5441,-480.00
5442,-1000.00
5443,-1400.00
5444,-1800.00
5445,-2040.00
5446,-2200.00
5447,-2160.00
5448,-2040.00
5449,-1720.00
5450,-1360.00
5451,-880.00
5452,-320.00
5453,280.00
5454,800.00
5455,1280.00
5456,1640.00
5457,1960.00
5458,2120.00
5459,2240.00
5460,2120.00
5461,1920.00
5462,1520.00
5463,1200.00
5464,600.00
5465,80.00
5466,-520.00
5467,-960.00
5468,-1400.00
5469,-1760.00
5470,-2080.00
5471,-2160.00
5472,-2160.00
5473,-2000.00
5474,-1720.00
5475,-1400.00
5476,-920.00
5477,-320.00
5478,280.00
5479,800.00
5480,1240.00
5481,1640.00
5482,1920.00
5483,2160.00
5484,2200.00
5485,2120.00
5486,1840.00
5487,1640.00
5488,1080.00
5489,640.00
5490,0.00
5491,-480.00
5492,-960.00
5493,-1400.00
5494,-1800.00
5495,-2040.00
5496,-2200.00
5497,-2160.00
5498,-2000.00
5499,-1720.00
5500,-1360.00
5501,-880.00
5502,-320.00
5503,280.00
5504,760.00
5505,1280.00
5506,1640.00
5507,1960.00
5508,2120.00
5509,2240.00
5510,2080.00
5511,1920.00
5512,1520.00
5513,1200.00
5514,600.00
5515,40.00
5516,-520.00
5517,-1000.00
5518,-1400.00
5519,-1800.00
5520,-2040.00
5521,-2160.00
5522,-2160.00
5523,-2000.00
5524,-1720.00
5525,-1360.00
5526,-960.00
5527,-320.00
5528,240.00
5529,800.00
5530,1240.00
5531,1640.00
5532,1920.00
5533,2160.00
5534,2200.00
5535,2120.00
5536,1840.00
5537,1600.00
5538,1080.00
5539,640.00
5540,0.00
5541,-480.00
5542,-1000.00
5543,-1400.00
5544,-1760.00
5545,-2040.00
5546,-2200.00
5547,-2200.00
5548,-2000.00
5549,-1720.00
5550,-1360.00
5551,-880.00
5552,-320.00
5553,240.00
5554,760.00
5555,1240.00
5556,1640.00
5557,1960.00
5558,2120.00
5559,2240.00
5560,2120.00
5561,1920.00
5562,1520.00
5563,1200.00
5564,640.00
5565,80.00
5566,-520.00
5567,-960.00
5568,-1440.00
5569,-1800.00
5570,-2040.00
5571,-2160.00
5572,-2160.00
5573,-2000.00
5574,-1880.00
5575,-1880.00
5576,-1760.00
5577,-1680.00
5578,-1560.00
5579,-1520.00
5580,-1440.00
5581,-1440.00
5582,-1360.00
5583,-1360.00
5584,-1280.00
5585,-1240.00
5586,-1160.00
5587,-1080.00
5588,-840.00
5589,-360.00
5590,120.00
5591,640.00
5592,1080.00
5593,1520.00
5594,1920.00
5595,2160.00
5596,2240.00
5597,2280.00
5598,2040.00
5599,1960.00
5600,1840.00
5601,1800.00
5602,1640.00
5603,1640.00
5604,1520.00
5605,1560.00
5606,1440.00
5607,1400.00
5608,1360.00
5609,1320.00
5610,1200.00
5611,1240.00
5612,1080.00
5613,840.00
5614,360.00
5615,-80.00
5616,-560.00
5617,-1080.00
5618,-1480.00
5619,-1840.00
5620,-2120.00
5621,-2240.00
5622,-2240.00
5623,-2000.00
5624,-1720.00
5625,-1400.00
5626,-960.00
5627,-360.00
5628,200.00
5629,800.00
5630,1200.00
5631,1640.00
5632,1960.00
5633,2160.00
5634,2200.00
5635,2160.00
5636,1800.00
5637,1640.00
5638,1200.00
5639,640.00
5640,0.00
5641,-480.00
5642,-960.00
5643,-1400.00
5644,-1800.00
5645,-2040.00
5646,-2200.00
5647,-2160.00
5648,-2000.00
5649,-1720.00
5650,-1360.00
5651,-880.00
5652,-360.00
5653,240.00
5654,760.00
5655,1240.00
5656,1640.00
5657,1960.00
5658,2120.00
5659,2240.00
5660,2120.00
5661,1960.00
5662,1480.00
5663,1200.00
5664,640.00
5665,80.00
5666,-520.00
5667,-960.00
5668,-1400.00
5669,-1800.00
5670,-2040.00
5671,-2160.00
5672,-2160.00
5673,-2000.00
5674,-1720.00
5675,-1400.00
5676,-920.00
5677,-320.00
5678,280.00
5679,800.00
5680,1240.00
5681,1640.00
5682,1920.00
5683,2160.00
5684,2200.00
5685,2120.00
5686,1800.00
5687,1640.00
5688,1120.00
5689,680.00
5690,0.00
5691,-440.00
5692,-960.00
5693,-1360.00
5694,-1800.00
5695,-2040.00
5696,-2200.00
5697,-2160.00
5698,-2000.00
5699,-1760.00
5700,-1360.00
5701,-880.00
5702,-360.00
5703,240.00
5704,760.00
5705,1280.00
5706,1600.00
5707,1960.00
5708,2120.00
5709,2240.00
5710,2120.00
5711,1920.00
5712,1480.00
5713,1200.00
5714,640.00
5715,80.00
5716,-520.00
5717,-920.00
5718,-1400.00
5719,-1800.00
5720,-2040.00
5721,-2160.00
5722,-2160.00
5723,-2000.00
5724,-1720.00
5725,-1360.00
5726,-960.00
5727,-320.00
5728,240.00
5729,760.00
5730,1240.00
5731,1640.00
5732,1920.00
5733,2160.00
5734,2200.00
5735,2120.00
5736,1880.00
5737,1640.00
5738,1160.00
5739,680.00
5740,0.00
5741,-480.00
5742,-960.00
5743,-1360.00
5744,-1800.00
5745,-2040.00
5746,-2200.00
5747,-2160.00
5748,-2000.00
5749,-1760.00
5750,-1360.00
5751,-880.00
5752,-360.00
5753,240.00
5754,760.00
5755,1240.00
5756,1600.00
5757,1960.00
5758,2120.00
5759,2240.00
5760,2120.00
5761,1920.00
5762,1520.00
5763,1200.00
5764,640.00
5765,80.00
5766,-520.00
5767,-960.00
5768,-1440.00
5769,-1800.00
5770,-2040.00
5771,-2120.00
5772,-2160.00
5773,-2000.00
5774,-1720.00
5775,-1400.00
5776,-920.00
5777,-360.00
5778,240.00
5779,760.00
5780,1240.00
5781,1640.00
5782,1920.00
5783,2160.00
5784,2200.00
5785,2160.00
5786,1800.00
5787,1640.00
5788,1200.00
5789,680.00
5790,40.00
5791,-480.00
5792,-960.00
5793,-1400.00
5794,-1760.00
5795,-2040.00
5796,-2200.00
5797,-2160.00
5798,-2000.00
5799,-1760.00
5800,-1400.00
5801,-880.00
5802,-360.00
5803,240.00
5804,760.00
5805,1240.00
5806,1600.00
5807,1960.00
5808,2120.00
5809,2240.00
5810,2120.00
5811,1960.00
5812,1480.00
5813,1200.00
5814,640.00
5815,80.00
5816,-520.00
5817,-960.00
5818,-1400.00
5819,-1760.00
5820,-2040.00
5821,-2160.00
5822,-2160.00
5823,-2000.00
5824,-1720.00
5825,-1360.00
5826,-920.00
5827,-320.00
5828,280.00
5829,800.00
5830,1240.00
5831,1640.00
5832,1920.00
5833,2160.00
5834,2200.00
5835,2120.00
5836,1840.00
5837,1640.00
5838,1160.00
5839,680.00
5840,0.00
5841,-440.00
5842,-960.00
5843,-1400.00
5844,-1760.00
5845,-2040.00
5846,-2200.00
5847,-2160.00
5848,-2000.00
5849,-1720.00
5850,-1400.00
5851,-880.00
5852,-400.00
5853,240.00
5854,760.00
5855,1240.00
5856,1640.00
5857,1960.00
5858,2120.00
5859,2240.00
5860,2120.00
5861,1920.00
5862,1520.00
5863,1240.00
5864,640.00
5865,80.00
5866,-520.00
5867,-960.00
5868,-1400.00
5869,-1760.00
5870,-2040.00
5871,-2160.00
5872,-2160.00
5873,-2000.00
5874,-1720.00
5875,-1360.00
5876,-920.00
5877,-360.00
5878,200.00
5879,760.00
5880,1240.00
5881,1640.00
5882,1920.00
5883,2160.00
5884,2200.00
5885,2160.00
5886,1800.00
5887,1640.00
5888,1200.00
5889,680.00
5890,0.00
5891,-440.00
5892,-960.00
5893,-1360.00
5894,-1760.00
5895,-2040.00
5896,-2200.00
5897,-2160.00
5898,-2000.00
5899,-1720.00
5900,-1360.00
5901,-880.00
5902,-400.00
5903,240.00
5904,760.00
5905,1240.00
5906,1640.00
5907,1960.00
5908,2120.00
5909,2240.00
5910,2120.00
5911,1960.00
5912,1520.00
5913,1200.00
5914,640.00
5915,80.00
5916,-520.00
5917,-960.00
5918,-1400.00
5919,-1760.00
5920,-2080.00
5921,-2160.00
5922,-2160.00
5923,-2000.00
5924,-1880.00
5925,-1880.00
5926,-1760.00
5927,-1680.00
5928,-1560.00
5929,-1520.00
5930,-1480.00
5931,-1440.00
5932,-1400.00
5933,-1320.00
5934,-1280.00
5935,-1240.00
5936,-1160.00
5937,-1080.00
5938,-840.00
5939,-360.00
5940,120.00
5941,640.00
5942,1080.00
5943,1520.00
5944,1920.00
5945,2160.00
5946,2240.00
5947,2240.00
5948,2040.00
5949,1800.00
5950,1360.00
5951,960.00
5952,320.00
5953,-200.00
5954,-800.00
5955,-1200.00
5956,-1600.00
5957,-1920.00
5958,-2160.00
5959,-2200.00
5960,-2120.00
5961,-1880.00
5962,-1560.00
5963,-1200.00
5964,-680.00
5965,-40.00
5966,480.00
5967,1000.00
5968,1440.00
5969,1800.00
5970,2080.00
5971,2240.00
5972,2200.00
5973,2080.00
5974,1920.00
5975,1920.00
5976,1760.00
5977,1680.00
5978,1560.00
5979,1600.00
5980,1480.00
5981,1480.00
5982,1400.00
5983,1360.00
5984,1280.00
5985,1280.00
5986,1200.00
5987,1120.00
5988,800.00
5989,360.00
5990,-80.00
5991,-600.00
5992,-1080.00
5993,-1480.00
5994,-1840.00
5995,-2080.00
5996,-2240.00
5997,-2200.00
5998,-2040.00
5999,-1760.00
6000,-320.00
6001,240.00
6002,760.00
6003,1240.00
6004,1640.00
6005,1960.00
6006,2120.00
6007,2240.00
6008,2120.00
6009,1960.00
6010,1520.00
6011,1200.00
6012,600.00
6013,80.00
6014,-520.00
6015,-920.00
6016,-1400.00
6017,-1760.00
6018,-2080.00
6019,-2160.00
6020,-2160.00
6021,-2000.00
6022,-1720.00
6023,-1360.00
6024,-920.00
6025,-320.00
6026,280.00
6027,760.00
6028,1240.00
6029,1640.00
6030,1920.00
6031,2160.00
6032,2200.00
6033,2120.00
6034,1800.00
6035,1640.00
6036,1120.00
6037,680.00
6038,0.00
6039,-480.00
6040,-960.00
6041,-1400.00
6042,-1800.00
6043,-2000.00
6044,-2200.00
6045,-2160.00
6046,-2000.00
6047,-1760.00
6048,-1360.00
6049,-880.00
6050,-360.00
6051,240.00
6052,760.00
6053,1280.00
6054,1600.00
6055,1960.00
6056,2120.00
6057,2240.00
6058,2120.00
6059,1920.00
6060,1480.00
6061,1200.00
6062,640.00
6063,80.00
6064,-520.00
6065,-960.00
6066,-1400.00
6067,-1800.00
6068,-2080.00
6069,-2160.00
6070,-2160.00
6071,-2000.00
6072,-1720.00
6073,-1360.00
6074,-920.00
6075,-320.00
6076,240.00
6077,760.00
6078,1240.00
6079,1640.00
6080,1920.00
6081,2160.00
6082,2200.00
6083,2120.00
6084,1800.00
6085,1640.00
6086,1120.00
6087,680.00
6088,0.00
6089,-440.00
6090,-1000.00
6091,-1360.00
6092,-1760.00
6093,-2000.00
6094,-2200.00
6095,-2160.00
6096,-2000.00
6097,-1720.00
6098,-1360.00
6099,-880.00
6100,-360.00
6101,240.00
6102,800.00
6103,1240.00
6104,1600.00
6105,1960.00
6106,2120.00
6107,2240.00
6108,2120.00
6109,1960.00
6110,1480.00
6111,1200.00
6112,640.00
6113,80.00
6114,-520.00
6115,-920.00
6116,-1440.00
6117,-1760.00
6118,-2080.00
6119,-2160.00
6120,-2160.00
6121,-2000.00
6122,-1720.00
6123,-1360.00
6124,-960.00
6125,-320.00
6126,200.00
6127,760.00
6128,1240.00
6129,1640.00
6130,1920.00
6131,2160.00
6132,2200.00
6133,2120.00
6134,1840.00
6135,1600.00
6136,1160.00
6137,680.00
6138,40.00
6139,-440.00
6140,-960.00
6141,-1360.00
6142,-1760.00
6143,-2040.00
6144,-2200.00
6145,-2160.00
6146,-2040.00
6147,-1920.00
6148,-1840.00
6149,-1760.00
6150,-1640.00
6151,-1640.00
6152,-1560.00
6153,-1480.00
6154,-1440.00
6155,-1360.00
6156,-1320.00
6157,-1320.00
6158,-1200.00
6159,-1160.00
6160,-1040.00
6161,-760.00
6162,-400.00
6163,120.00
6164,640.00
6165,1120.00
6166,1480.00
6167,1920.00
6168,2120.00
6169,2280.00
6170,2200.00
6171,2120.00
6172,1920.00
6173,1920.00
6174,1760.00
6175,1680.00
6176,1520.00
6177,1600.00
6178,1480.00
6179,1480.00
6180,1360.00
6181,1360.00
6182,1280.00
6183,1280.00
6184,1200.00
6185,1120.00
6186,800.00
6187,360.00
6188,-120.00
6189,-600.00
6190,-1120.00
6191,-1480.00
6192,-1840.00
6193,-2040.00
6194,-2240.00
6195,-2200.00
6196,-2080.00
6197,-1800.00
6198,-1400.00
6199,-880.00
6200,-360.00
6201,280.00
6202,800.00
6203,1240.00
6204,1640.00
6205,1960.00
6206,2120.00
6207,2240.00
6208,2080.00
6209,1920.00
6210,1520.00
6211,1200.00
6212,640.00
6213,80.00
6214,-520.00
6215,-960.00
6216,-1400.00
6217,-1800.00
6218,-2040.00
6219,-2160.00
6220,-2160.00
6221,-2000.00
6222,-1720.00
6223,-1400.00
6224,-920.00
6225,-320.00
6226,280.00
6227,800.00
6228,1240.00
6229,1640.00
6230,1920.00
6231,2200.00
6232,2200.00
6233,2120.00
6234,1880.00
6235,1600.00
6236,1120.00
6237,680.00
6238,0.00
6239,-480.00
6240,-1000.00
6241,-1400.00
6242,-1800.00
6243,-2040.00
6244,-2200.00
6245,-2160.00
6246,-2000.00
6247,-1760.00
6248,-1360.00
6249,-880.00
6250,-360.00
6251,240.00
6252,760.00
6253,1240.00
6254,1600.00
6255,1960.00
6256,2120.00
6257,2200.00
6258,2120.00
6259,1920.00
6260,1480.00
6261,1200.00
6262,640.00
6263,80.00
6264,-520.00
6265,-1000.00
6266,-1400.00
6267,-1800.00
6268,-2040.00
6269,-2160.00
6270,-2160.00
6271,-2000.00
6272,-1720.00
6273,-1400.00
6274,-920.00
6275,-320.00
6276,240.00
6277,800.00
6278,1240.00
6279,1640.00
6280,1920.00
6281,2160.00
6282,2200.00
6283,2120.00
6284,1840.00
6285,1600.00
6286,1120.00
6287,640.00
6288,0.00
6289,-480.00
6290,-1000.00
6291,-1400.00
6292,-1800.00
6293,-2040.00
6294,-2200.00
6295,-2160.00
6296,-2000.00
6297,-1720.00
6298,-1360.00
6299,-880.00
6300,-320.00
6301,240.00
6302,760.00
6303,1280.00
6304,1640.00
6305,1960.00
6306,2120.00
6307,2240.00
6308,2120.00
6309,1920.00
6310,1520.00
6311,1200.00
6312,600.00
6313,80.00
6314,-520.00
6315,-960.00
6316,-1400.00
6317,-1800.00
6318,-2080.00
6319,-2160.00
6320,-2160.00
6321,-2000.00
6322,-1720.00
6323,-1360.00
6324,-920.00
6325,-320.00
6326,280.00
6327,800.00
6328,1240.00
6329,1640.00
6330,1920.00
6331,2160.00
6332,2200.00
6333,2120.00
6334,1800.00
6335,1600.00
6336,1120.00
6337,640.00
6338,0.00
6339,-480.00
6340,-1000.00
6341,-1400.00
6342,-1800.00
6343,-2040.00
6344,-2200.00
6345,-2160.00
6346,-2040.00
6347,-1720.00
6348,-1360.00
6349,-880.00
6350,-320.00
6351,240.00
6352,760.00
6353,1280.00
6354,1600.00
6355,1960.00
6356,2120.00
6357,2240.00
6358,2120.00
6359,1920.00
6360,1480.00
6361,1200.00
6362,600.00
6363,80.00
6364,-520.00
6365,-960.00
6366,-1440.00
6367,-1800.00
6368,-2080.00
6369,-2160.00
6370,-2160.00
6371,-2000.00
6372,-1720.00
6373,-1360.00
6374,-920.00
6375,-320.00
6376,240.00
6377,800.00
6378,1240.00
6379,1640.00
6380,1920.00
6381,2200.00
6382,2200.00
6383,2120.00
6384,1840.00
6385,1640.00
6386,1120.00
6387,640.00
6388,0.00
6389,-440.00
6390,-960.00
6391,-1400.00
6392,-1800.00
6393,-2040.00
6394,-2200.00
6395,-2160.00
6396,-2000.00
6397,-1760.00
6398,-1360.00
6399,-840.00
6400,-400.00
6401,240.00
6402,800.00
6403,1280.00
6404,1640.00
6405,1960.00
6406,2120.00
6407,2240.00
6408,2120.00
6409,1920.00
6410,1480.00
6411,1200.00
6412,600.00
6413,80.00
6414,-520.00
6415,-1000.00
6416,-1440.00
6417,-1800.00
6418,-2080.00
6419,-2160.00
6420,-2160.00
6421,-2000.00
6422,-1720.00
6423,-1360.00
6424,-920.00
6425,-320.00
6426,240.00
6427,800.00
6428,1240.00
6429,1640.00
6430,1920.00
6431,2200.00
6432,2200.00
6433,2120.00
6434,1840.00
6435,1640.00
6436,1120.00
6437,640.00
6438,0.00
6439,-480.00
6440,-960.00
6441,-1400.00
6442,-1800.00
6443,-2040.00
6444,-2200.00
6445,-2160.00
6446,-2000.00
6447,-1720.00
6448,-1360.00
6449,-840.00
6450,-320.00
6451,240.00
6452,760.00
6453,1280.00
6454,1640.00
6455,1960.00
6456,2120.00
6457,2240.00
6458,2120.00
6459,1920.00
6460,1520.00
6461,1200.00
6462,600.00
6463,40.00
6464,-520.00
6465,-960.00
6466,-1440.00
6467,-1800.00
6468,-2080.00
6469,-2160.00
6470,-2160.00
6471,-2000.00
6472,-1720.00
6473,-1360.00
6474,-920.00
6475,-320.00
6476,240.00
6477,800.00
6478,1240.00
6479,1640.00
6480,1920.00
6481,2160.00
6482,2200.00
6483,2120.00
6484,1800.00
6485,1640.00
6486,1120.00
6487,640.00
6488,0.00
6489,-480.00
6490,-1000.00
6491,-1400.00
6492,-1800.00
6493,-2040.00
6494,-2200.00
6495,-2160.00
6496,-2040.00
6497,-1920.00
6498,-1800.00
6499,-1760.00
6500,-1640.00
6501,-1640.00
6502,-1560.00
6503,-1480.00
6504,-1400.00
6505,-1360.00
6506,-1320.00
6507,-1280.00
6508,-1200.00
6509,-1200.00
6510,-1000.00
6511,-760.00
6512,-320.00
6513,160.00
6514,640.00
6515,1120.00
6516,1480.00
6517,1920.00
6518,2120.00
6519,2280.00
6520,2200.00
6521,2120.00
6522,1920.00
6523,1920.00
6524,1760.00
6525,1680.00
6526,1520.00
6527,1600.00
6528,1480.00
6529,1480.00
6530,1360.00
6531,1360.00
6532,1320.00
6533,1280.00
6534,1200.00
6535,1120.00
6536,800.00
6537,360.00
6538,-120.00
6539,-640.00
6540,-1120.00
6541,-1480.00
6542,-1840.00
6543,-2080.00
6544,-2240.00
6545,-2240.00
6546,-2040.00
6547,-1800.00
6548,-1400.00
6549,-880.00
6550,-280.00
6551,280.00
6552,800.00
6553,1240.00
6554,1640.00
6555,1960.00
6556,2120.00
6557,2240.00
6558,2120.00
6559,1920.00
6560,1520.00
6561,1240.00
6562,600.00
6563,80.00
6564,-520.00
6565,-960.00
6566,-1400.00
6567,-1760.00
6568,-2040.00
6569,-2160.00
6570,-2160.00
6571,-2000.00
6572,-1720.00
6573,-1360.00
6574,-920.00
6575,-320.00
6576,280.00
6577,800.00
6578,1240.00
6579,1640.00
6580,1920.00
6581,2160.00
6582,2200.00
6583,2120.00
6584,1840.00
6585,1640.00
6586,1160.00
6587,640.00
6588,0.00
6589,-480.00
6590,-960.00
6591,-1400.00
6592,-1800.00
6593,-2040.00
6594,-2200.00
6595,-2160.00
6596,-2000.00
6597,-1720.00
6598,-1360.00
6599,-880.00
6600,760.00
6601,1280.00
6602,1640.00
6603,1960.00
6604,2120.00
6605,2240.00
6606,2120.00
6607,1920.00
6608,1520.00
6609,1200.00
6610,600.00
6611,40.00
6612,-520.00
6613,-960.00
6614,-1400.00
6615,-1800.00
6616,-2040.00
6617,-2120.00
6618,-2160.00
6619,-2000.00
6620,-1720.00
6621,-1360.00
6622,-920.00
6623,-320.00
6624,280.00
6625,800.00
6626,1240.00
6627,1640.00
6628,1960.00
6629,2160.00
6630,2200.00
6631,2120.00
6632,1800.00
6633,1640.00
6634,1080.00
6635,640.00
6636,0.00
6637,-480.00
6638,-960.00
6639,-1400.00
6640,-1800.00
6641,-2040.00
6642,-2200.00
6643,-2160.00
6644,-2000.00
6645,-1720.00
6646,-1360.00
6647,-840.00
6648,-360.00
6649,280.00
6650,760.00
6651,1280.00
6652,1640.00
6653,1960.00
6654,2120.00
6655,2240.00
6656,2120.00
6657,1920.00
6658,1520.00
6659,1200.00
6660,600.00
6661,80.00
6662,-520.00
6663,-1000.00
6664,-1440.00
6665,-1800.00
6666,-2080.00
6667,-2160.00
6668,-2160.00
6669,-2000.00
6670,-1720.00
6671,-1360.00
6672,-920.00
6673,-320.00
6674,240.00
6675,800.00
6676,1240.00
6677,1640.00
6678,1920.00
6679,2160.00
6680,2200.00
6681,2120.00
6682,1800.00
6683,1600.00
6684,1080.00
6685,640.00
6686,0.00
6687,-480.00
6688,-960.00
6689,-1400.00
6690,-1800.00
6691,-2040.00
6692,-2200.00
6693,-2160.00
6694,-2000.00
6695,-1720.00
6696,-1360.00
6697,-880.00
6698,-320.00
6699,280.00
6700,760.00
6701,1280.00
6702,1640.00
6703,1960.00
6704,2120.00
6705,2240.00
6706,2080.00
6707,1920.00
6708,1520.00
6709,1200.00
6710,600.00
6711,40.00
6712,-520.00
6713,-960.00
6714,-1400.00
6715,-1760.00
6716,-2080.00
6717,-2160.00
6718,-2160.00
6719,-2000.00
6720,-1720.00
6721,-1360.00
6722,-920.00
6723,-320.00
6724,280.00
6725,800.00
6726,1240.00
6727,1640.00
6728,1920.00
6729,2200.00
6730,2200.00
6731,2120.00
6732,1800.00
6733,1640.00
6734,1120.00
6735,640.00
6736,0.00
6737,-480.00
6738,-1000.00
6739,-1400.00
6740,-1800.00
6741,-2040.00
6742,-2200.00
6743,-2160.00
6744,-2040.00
6745,-1920.00
6746,-1840.00
6747,-1760.00
6748,-1680.00
6749,-1640.00
6750,-1560.00
6751,-1480.00
6752,-1400.00
6753,-1360.00
6754,-1320.00
6755,-1320.00
6756,-1240.00
6757,-1160.00
6758,-1040.00
6759,-760.00
6760,-360.00
6761,160.00
6762,640.00
6763,1120.00
6764,1520.00
6765,1920.00
6766,2120.00
6767,2280.00
6768,2200.00
6769,2120.00
6770,1920.00
6771,1920.00
6772,1760.00
6773,1680.00
6774,1560.00
6775,1600.00
6776,1480.00
6777,1480.00
6778,1360.00
6779,1360.00
6780,1320.00
6781,1280.00
6782,1200.00
6783,1120.00
6784,800.00
6785,360.00
6786,-120.00
6787,-600.00
6788,-1120.00
6789,-1480.00
6790,-1840.00
6791,-2080.00
6792,-2240.00
6793,-2200.00
6794,-2080.00
6795,-2000.00
6796,-1840.00
6797,-1800.00
6798,-1640.00
6799,-1640.00
6800,-1560.00
6801,-1520.00
6802,-1400.00
6803,-1360.00
6804,-1320.00
6805,-1320.00
6806,-1240.00
6807,-1160.00
6808,-1040.00
6809,-760.00
6810,-360.00
6811,160.00
6812,640.00
6813,1120.00
6814,1480.00
6815,1920.00
6816,2120.00
6817,2280.00
6818,2200.00
6819,2080.00
6820,1680.00
6821,1440.00
6822,880.00
6823,360.00
6824,-280.00
6825,-680.00
6826,-1200.00
6827,-1640.00
6828,-1960.00
6829,-2120.00
6830,-2200.00
6831,-2080.00
6832,-1840.00
6833,-1600.00
6834,-1120.00
6835,-600.00
6836,0.00
6837,560.00
6838,1000.00
6839,1440.00
6840,1800.00
6841,2080.00
6842,2200.00
6843,2200.00
6844,2040.00
6845,1760.00
6846,1360.00
6847,960.00
6848,320.00
6849,-200.00
6850,-800.00
6851,-1200.00
6852,-1600.00
6853,-1920.00
6854,-2160.00
6855,-2200.00
6856,-2080.00
6857,-1880.00
6858,-1560.00
6859,-1160.00
6860,-680.00
6861,0.00
6862,560.00
6863,1000.00
6864,1440.00
6865,1840.00
6866,2080.00
6867,2240.00
6868,2160.00
6869,2080.00
6870,1920.00
6871,1920.00
6872,1680.00
6873,1680.00
6874,1560.00
6875,1600.00
6876,1480.00
6877,1480.00
6878,1400.00
6879,1360.00
6880,1320.00
6881,1280.00
6882,1200.00
6883,1120.00
6884,800.00
6885,360.00
6886,-80.00
6887,-600.00
6888,-1080.00
6889,-1480.00
6890,-1840.00
6891,-2080.00
6892,-2240.00
6893,-2200.00
6894,-2080.00
6895,-1960.00
6896,-1840.00
6897,-1760.00
6898,-1680.00
6899,-1600.00
6900,-1560.00
6901,-1480.00
6902,-1400.00
6903,-1360.00
6904,-1320.00
6905,-1280.00
6906,-1200.00
6907,-1160.00
6908,-1040.00
6909,-760.00
6910,-360.00
6911,160.00
6912,640.00
6913,1120.00
6914,1480.00
6915,1920.00
6916,2120.00
6917,2280.00
6918,2200.00
6919,2120.00
6920,1880.00
6921,1920.00
6922,1760.00
6923,1680.00
6924,1520.00
6925,1600.00
6926,1480.00
6927,1480.00
6928,1360.00
6929,1400.00
6930,1280.00
6931,1280.00
6932,1200.00
6933,1120.00
6934,800.00
6935,360.00
6936,-120.00
6937,-600.00
6938,-1080.00
6939,-1480.00
6940,-1840.00
6941,-2080.00
6942,-2240.00
6943,-2200.00
6944,-2080.00
6945,-1960.00
6946,-1840.00
6947,-1760.00
6948,-1640.00
6949,-1600.00
6950,-1520.00
6951,-1480.00
6952,-1400.00
6953,-1360.00
6954,-1320.00
6955,-1280.00
6956,-1200.00
6957,-1160.00
6958,-1040.00
6959,-760.00
6960,-400.00
6961,160.00
6962,640.00
6963,1080.00
6964,1480.00
6965,1920.00
6966,2120.00
6967,2280.00
6968,2200.00
6969,2120.00
6970,1920.00
6971,1920.00
6972,1760.00
6973,1680.00
6974,1560.00
6975,1600.00
6976,1480.00
6977,1480.00
6978,1360.00
6979,1360.00
6980,1280.00
6981,1280.00
6982,1200.00
6983,1120.00
6984,800.00
6985,360.00
6986,-120.00
6987,-600.00
6988,-1120.00
6989,-1480.00
6990,-1840.00
6991,-2080.00
6992,-2240.00
6993,-2200.00
6994,-2080.00
6995,-1960.00
6996,-1840.00
6997,-1760.00
6998,-1640.00
6999,-1600.00
7000,-1560.00
7001,-1480.00
7002,-1400.00
7003,-1360.00
7004,-1320.00
7005,-1280.00
7006,-1240.00
7007,-1160.00
7008,-1000.00
7009,-760.00
7010,-400.00
7011,120.00
7012,640.00
7013,1120.00
7014,1480.00
7015,1920.00
7016,2120.00
7017,2280.00
7018,2200.00
7019,2080.00
7020,1680.00
7021,1440.00
7022,880.00
7023,360.00
7024,-240.00
7025,-680.00
7026,-1200.00
7027,-1640.00
7028,-1920.00
7029,-2120.00
7030,-2200.00
7031,-2080.00
7032,-1840.00
7033,-1600.00
7034,-1160.00
7035,-600.00
7036,-40.00
7037,560.00
7038,1000.00
7039,1480.00
7040,1800.00
7041,2080.00
7042,2200.00
7043,2240.00
7044,2000.00
7045,1760.00
7046,1360.00
7047,960.00
7048,360.00
7049,-200.00
7050,-800.00
7051,-1200.00
7052,-1600.00
7053,-1920.00
7054,-2160.00
7055,-2160.00
7056,-2080.00
7057,-1880.00
7058,-1520.00
7059,-1160.00
7060,-680.00
7061,0.00
7062,480.00
7063,1000.00
7064,1400.00
7065,1840.00
7066,2080.00
7067,2240.00
7068,2120.00
7069,2080.00
7070,1920.00
7071,1920.00
7072,1760.00
7073,1680.00
7074,1520.00
7075,1600.00
7076,1480.00
7077,1480.00
7078,1360.00
7079,1400.00
7080,1280.00
7081,1280.00
7082,1200.00
7083,1120.00
7084,800.00
7085,400.00
7086,-120.00
7087,-600.00
7088,-1080.00
7089,-1480.00
7090,-1840.00
7091,-2080.00
7092,-2240.00
7093,-2200.00
7094,-2080.00
7095,-1760.00
7096,-1400.00
7097,-880.00
7098,-320.00
7099,240.00
7100,800.00
7101,1240.00
7102,1640.00
7103,1960.00
7104,2120.00
7105,2240.00
7106,2120.00
7107,1960.00
7108,1520.00
7109,1240.00
7110,640.00
7111,80.00
7112,-520.00
7113,-920.00
7114,-1400.00
7115,-1760.00
7116,-2040.00
7117,-2120.00
7118,-2160.00
7119,-2000.00
7120,-1720.00
7121,-1400.00
7122,-920.00
7123,-360.00
7124,240.00
7125,760.00
7126,1240.00
7127,1640.00
7128,1920.00
7129,2160.00
7130,2200.00
7131,2160.00
7132,1800.00
7133,1640.00
7134,1200.00
7135,680.00
7136,0.00
7137,-440.00
7138,-960.00
7139,-1360.00
7140,-1760.00
7141,-2040.00
7142,-2200.00
7143,-2160.00
7144,-2000.00
7145,-1720.00
7146,-1360.00
7147,-880.00
7148,-400.00
7149,240.00
7150,760.00
7151,1240.00
7152,1600.00
7153,1960.00
7154,2120.00
7155,2240.00
7156,2120.00
7157,1920.00
7158,1520.00
7159,1200.00
7160,640.00
7161,80.00
7162,-520.00
7163,-960.00
7164,-1400.00
7165,-1800.00
7166,-2080.00
7167,-2160.00
7168,-2160.00
7169,-2000.00
7170,-1880.00
7171,-1880.00
7172,-1760.00
7173,-1680.00
7174,-1560.00
7175,-1560.00
7176,-1480.00
7177,-1440.00
7178,-1400.00
7179,-1360.00
7180,-1280.00
7181,-1240.00
7182,-1160.00
7183,-1080.00
7184,-840.00
7185,-360.00
7186,120.00
7187,640.00
7188,1080.00
7189,1520.00
7190,1880.00
7191,2160.00
7192,2240.00
7193,2280.00
7194,2080.00
7195,1960.00
7196,1840.00
7197,1800.00
7198,1640.00
7199,1640.00
7200,1440.00
7201,1400.00
7202,1360.00
7203,1320.00
7204,1240.00
7205,1240.00
7206,1080.00
7207,840.00
7208,360.00
7209,-80.00
7210,-560.00
7211,-1040.00
7212,-1480.00
7213,-1840.00
7214,-2120.00
7215,-2240.00
7216,-2200.00
7217,-2000.00
7218,-1760.00
7219,-1400.00
7220,-960.00
7221,-360.00
7222,200.00
7223,800.00
7224,1200.00
7225,1640.00
7226,1960.00
7227,2160.00
7228,2200.00
7229,2160.00
7230,1800.00
7231,1640.00
7232,1200.00
7233,680.00
7234,0.00
7235,-440.00
7236,-960.00
7237,-1360.00
7238,-1760.00
7239,-2000.00
7240,-2200.00
7241,-2160.00
7242,-2040.00
7243,-1920.00
7244,-1800.00
7245,-1760.00
7246,-1640.00
7247,-1640.00
7248,-1560.00
7249,-1480.00
7250,-1440.00
7251,-1360.00
7252,-1320.00
7253,-1320.00
7254,-1200.00
7255,-1160.00
7256,-1040.00
7257,-760.00
7258,-400.00
7259,120.00
7260,600.00
7261,1080.00
7262,1480.00
7263,1920.00
7264,2120.00
7265,2280.00
7266,2200.00
7267,2120.00
7268,1920.00
7269,1920.00
7270,1760.00
7271,1680.00
7272,1560.00
7273,1600.00
7274,1480.00
7275,1480.00
7276,1360.00
7277,1360.00
7278,1280.00
7279,1280.00
7280,1200.00
7281,1120.00
7282,800.00
7283,400.00
7284,-120.00
7285,-600.00
7286,-1080.00
7287,-1480.00
7288,-1840.00
7289,-2080.00
7290,-2240.00
7291,-2200.00
7292,-2120.00
7293,-1960.00
7294,-1840.00
7295,-1800.00
7296,-1640.00
7297,-1600.00
7298,-1520.00
7299,-1480.00
7300,-1440.00
7301,-1360.00
7302,-1320.00
7303,-1320.00
7304,-1200.00
7305,-1160.00
7306,-1040.00
7307,-760.00
7308,-400.00
7309,120.00
7310,640.00
7311,1080.00
7312,1480.00
7313,1920.00
7314,2120.00
7315,2280.00
7316,2200.00
7317,2080.00
7318,1760.00
7319,1440.00
7320,880.00
7321,360.00
7322,-240.00
7323,-680.00
7324,-1200.00
7325,-1640.00
7326,-1960.00
7327,-2120.00
7328,-2200.00
7329,-2080.00
7330,-1840.00
7331,-1600.00
7332,-1160.00
7333,-600.00
7334,0.00
7335,560.00
7336,960.00
7337,1440.00
7338,1800.00
7339,2080.00
7340,2200.00
7341,2200.00
7342,2040.00
7343,1960.00
7344,1840.00
7345,1760.00
7346,1640.00
7347,1640.00
7348,1520.00
7349,1560.00
7350,1440.00
7351,1400.00
7352,1360.00
7353,1320.00
7354,1200.00
7355,1240.00
7356,1080.00
7357,880.00
7358,360.00
7359,-80.00
7360,-600.00
7361,-1040.00
7362,-1480.00
7363,-1880.00
7364,-2120.00
7365,-2240.00
7366,-2240.00
7367,-2040.00
7368,-1960.00
7369,-1880.00
7370,-1800.00
7371,-1680.00
7372,-1600.00
7373,-1560.00
7374,-1520.00
7375,-1440.00
7376,-1360.00
7377,-1360.00
7378,-1280.00
7379,-1240.00
7380,-1160.00
7381,-1080.00
7382,-840.00
7383,-360.00
7384,120.00
7385,640.00
7386,1080.00
7387,1520.00
7388,1880.00
7389,2160.00
7390,2240.00
7391,2280.00
7392,2040.00
7393,1960.00
7394,1840.00
7395,1800.00
7396,1640.00
7397,1640.00
7398,1520.00
7399,1560.00
7400,1440.00
7401,1400.00
7402,1360.00
7403,1320.00
7404,1200.00
7405,1240.00
7406,1080.00
7407,840.00
7408,360.00
7409,-80.00
7410,-600.00
7411,-1080.00
7412,-1520.00
7413,-1880.00
7414,-2160.00
7415,-2240.00
7416,-2240.00
7417,-2040.00
7418,-1720.00
7419,-1400.00
7420,-960.00
7421,-320.00
7422,200.00
7423,760.00
7424,1240.00
7425,1640.00
7426,1960.00
7427,2160.00
7428,2200.00
7429,2120.00
7430,1840.00
7431,1600.00
7432,1120.00
7433,640.00
7434,0.00
7435,-480.00
7436,-960.00
7437,-1400.00
7438,-1760.00
7439,-2040.00
7440,-2200.00
7441,-2200.00
7442,-2040.00
7443,-1920.00
7444,-1800.00
7445,-1760.00
7446,-1680.00
7447,-1640.00
7448,-1560.00
7449,-1480.00
7450,-1400.00
7451,-1360.00
7452,-1320.00
7453,-1320.00
7454,-1200.00
7455,-1200.00
7456,-1000.00
7457,-800.00
7458,-360.00
7459,160.00
7460,640.00
7461,1080.00
7462,1480.00
7463,1920.00
7464,2120.00
7465,2280.00
7466,2200.00
7467,2080.00
7468,1760.00
7469,1440.00
7470,880.00
7471,360.00
7472,-240.00
7473,-680.00
7474,-1200.00
7475,-1640.00
7476,-1960.00
7477,-2120.00
7478,-2200.00
7479,-2080.00
7480,-1840.00
7481,-1600.00
7482,-1160.00
7483,-600.00
7484,0.00
7485,560.00
7486,960.00
7487,1440.00
7488,1800.00
7489,2080.00
7490,2200.00
7491,2200.00
7492,2040.00
7493,1760.00
7494,1360.00
7495,960.00
7496,320.00
7497,-200.00
7498,-760.00
7499,-1200.00
7500,-1600.00
7501,-1920.00
7502,-2160.00
7503,-2200.00
7504,-2080.00
7505,-1880.00
7506,-1560.00
7507,-1200.00
7508,-600.00
7509,0.00
7510,520.00
7511,1040.00
7512,1440.00
7513,1840.00
7514,2080.00
7515,2240.00
7516,2160.00
7517,2040.00
7518,1680.00
7519,1440.00
7520,880.00
7521,320.00
7522,-240.00
7523,-680.00
7524,-1200.00
7525,-1640.00
7526,-1880.00
7527,-2120.00
7528,-2200.00
7529,-2080.00
7530,-1840.00
7531,-1600.00
7532,-1160.00
7533,-600.00
7534,0.00
7535,560.00
7536,960.00
7537,1440.00
7538,1800.00
7539,2080.00
7540,2200.00
7541,2200.00
7542,2040.00
7543,1760.00
7544,1360.00
7545,960.00
7546,320.00
7547,-200.00
7548,-800.00
7549,-1200.00
7550,-1600.00
7551,-1920.00
7552,-2160.00
7553,-2200.00
7554,-2080.00
7555,-1880.00
7556,-1560.00
7557,-1160.00
7558,-680.00
7559,0.00
7560,480.00
7561,1000.00
7562,1440.00
7563,1800.00
7564,2080.00
7565,2240.00
7566,2160.00
7567,2040.00
7568,1760.00
7569,1400.00
7570,880.00
7571,320.00
7572,-240.00
7573,-720.00
7574,-1200.00
7575,-1640.00
7576,-1880.00
7577,-2080.00
7578,-2200.00
7579,-2080.00
7580,-1840.00
7581,-1560.00
7582,-1160.00
7583,-600.00
7584,0.00
7585,560.00
7586,1000.00
7587,1440.00
7588,1800.00
7589,2080.00
7590,2200.00
7591,2200.00
7592,2000.00
7593,1760.00
7594,1360.00
7595,960.00
7596,320.00
7597,-200.00
7598,-840.00
7599,-1200.00
7600,-1600.00
7601,-1920.00
7602,-2160.00
7603,-2160.00
7604,-2080.00
7605,-1880.00
7606,-1560.00
7607,-1160.00
7608,-680.00
7609,0.00
7610,520.00
7611,1040.00
7612,1440.00
7613,1840.00
7614,2080.00
7615,2240.00
7616,2120.00
7617,2040.00
7618,1760.00
7619,1400.00
7620,880.00
7621,360.00
7622,-240.00
7623,-720.00
7624,-1200.00
7625,-1600.00
7626,-1920.00
7627,-2120.00
7628,-2200.00
7629,-2080.00
7630,-1840.00
7631,-1600.00
7632,-1160.00
7633,-600.00
7634,0.00
7635,560.00
7636,1000.00
7637,1440.00
7638,1800.00
7639,2080.00
7640,2200.00
7641,2200.00
7642,2040.00
7643,1960.00
7644,1840.00
7645,1760.00
7646,1640.00
7647,1640.00
7648,1520.00
7649,1560.00
7650,1440.00
7651,1440.00
7652,1320.00
7653,1320.00
7654,1240.00
7655,1240.00
7656,1080.00
7657,840.00
7658,360.00
7659,-80.00
7660,-600.00
7661,-1080.00
7662,-1520.00
7663,-1880.00
7664,-2160.00
7665,-2240.00
7666,-2240.00
7667,-2040.00
7668,-1960.00
7669,-1880.00
7670,-1760.00
7671,-1680.00
7672,-1600.00
7673,-1560.00
7674,-1480.00
7675,-1440.00
7676,-1360.00
7677,-1360.00
7678,-1280.00
7679,-1240.00
7680,-1160.00
7681,-1000.00
7682,-840.00
7683,-360.00
7684,120.00
7685,640.00
7686,1080.00
7687,1560.00
7688,1920.00
7689,2160.00
7690,2240.00
7691,2280.00
7692,2040.00
7693,1960.00
7694,1840.00
7695,1760.00
7696,1640.00
7697,1640.00
7698,1520.00
7699,1560.00
7700,1440.00
7701,1400.00
7702,1360.00
7703,1320.00
7704,1240.00
7705,1200.00
7706,1080.00
7707,840.00
7708,360.00
7709,-80.00
7710,-600.00
7711,-1080.00
7712,-1520.00
7713,-1880.00
7714,-2080.00
7715,-2200.00
7716,-2240.00
7717,-2040.00
7718,-1880.00
7719,-1880.00
7720,-1760.00
7721,-1680.00
7722,-1600.00
7723,-1560.00
7724,-1480.00
7725,-1400.00
7726,-1400.00
7727,-1360.00
7728,-1280.00
7729,-1240.00
7730,-1160.00
7731,-1040.00
7732,-840.00
7733,-360.00
7734,120.00
7735,640.00
7736,1080.00
7737,1560.00
7738,1920.00
7739,2160.00
7740,2240.00
7741,2280.00
7742,2040.00
7743,1760.00
7744,1360.00
7745,960.00
7746,320.00
7747,-200.00
7748,-800.00
7749,-1200.00
7750,-1600.00
7751,-1920.00
7752,-2160.00
7753,-2200.00
7754,-2120.00
7755,-1880.00
7756,-1560.00
7757,-1160.00
7758,-680.00
7759,0.00
7760,520.00
7761,1040.00
7762,1440.00
7763,1840.00
7764,2080.00
7765,2240.00
7766,2200.00
7767,2040.00
7768,1760.00
7769,1400.00
7770,880.00
7771,360.00
7772,-240.00
7773,-680.00
7774,-1200.00
7775,-1600.00
7776,-1880.00
7777,-2080.00
7778,-2200.00
7779,-2080.00
7780,-1840.00
7781,-1600.00
7782,-1160.00
7783,-600.00
7784,0.00
7785,560.00
7786,1000.00
7787,1440.00
7788,1800.00
7789,2080.00
7790,2200.00
7791,2200.00
7792,2040.00
7793,1760.00
7794,1360.00
7795,960.00
7796,320.00
7797,-200.00
7798,-840.00
7799,-1200.00
7800,-2160.00
7801,-2200.00
7802,-2080.00
7803,-1880.00
7804,-1560.00
7805,-1160.00
7806,-680.00
7807,0.00
7808,480.00
7809,1000.00
7810,1440.00
7811,1800.00
7812,2040.00
7813,2240.00
7814,2160.00
7815,2080.00
7816,1920.00
7817,1920.00
7818,1760.00
7819,1680.00
7820,1560.00
7821,1600.00
7822,1480.00
7823,1480.00
7824,1360.00
7825,1360.00
7826,1280.00
7827,1280.00
7828,1200.00
7829,1120.00
7830,800.00
7831,360.00
7832,-120.00
7833,-600.00
7834,-1080.00
7835,-1480.00
7836,-1840.00
7837,-2080.00
7838,-2240.00
7839,-2200.00
7840,-2120.00
7841,-1960.00
7842,-1840.00
7843,-1800.00
7844,-1640.00
7845,-1600.00
7846,-1520.00
7847,-1480.00
7848,-1400.00
7849,-1360.00
7850,-1320.00
7851,-1280.00
7852,-1200.00
7853,-1160.00
7854,-1040.00
7855,-760.00
7856,-400.00
7857,160.00
7858,640.00
7859,1120.00
7860,1480.00
7861,1920.00
7862,2120.00
7863,2280.00
7864,2200.00
7865,2120.00
7866,1920.00
7867,1920.00
7868,1760.00
7869,1680.00
7870,1520.00
7871,1640.00
7872,1480.00
7873,1480.00
7874,1360.00
7875,1360.00
7876,1320.00
7877,1280.00
7878,1200.00
7879,1120.00
7880,800.00
7881,360.00
7882,-120.00
7883,-600.00
7884,-1120.00
7885,-1480.00
7886,-1840.00
7887,-2080.00
7888,-2240.00
7889,-2200.00
7890,-2040.00
7891,-1760.00
7892,-1400.00
7893,-880.00
7894,-320.00
7895,280.00
7896,800.00
7897,1240.00
7898,1640.00
7899,1960.00
7900,2120.00
7901,2240.00
7902,2080.00
7903,1920.00
7904,1520.00
7905,1200.00
7906,600.00
7907,80.00
7908,-520.00
7909,-960.00
7910,-1400.00
7911,-1800.00
7912,-2040.00
7913,-2160.00
7914,-2160.00
7915,-2000.00
7916,-1720.00
7917,-1360.00
7918,-920.00
7919,-320.00
7920,280.00
7921,760.00
7922,1240.00
7923,1640.00
7924,1920.00
7925,2160.00
7926,2200.00
7927,2120.00
7928,1800.00
7929,1640.00
7930,1160.00
7931,640.00
7932,0.00
7933,-440.00
7934,-960.00
7935,-1400.00
7936,-1800.00
7937,-2040.00
7938,-2200.00
7939,-2160.00
7940,-2000.00
7941,-1720.00
7942,-1360.00
7943,-880.00
7944,-360.00
7945,280.00
7946,760.00
7947,1280.00
7948,1600.00
7949,1960.00
7950,2120.00
7951,2240.00
7952,2120.00
7953,1920.00
7954,1520.00
7955,1200.00
7956,600.00
7957,80.00
7958,-520.00
7959,-920.00
7960,-1400.00
7961,-1800.00
7962,0.00
7963,0.00
7964,0.00
7965,0.00
7966,0.00
7967,0.00
7968,0.00
7969,0.00
7970,0.00
7971,0.00
7972,0.00
7973,0.00
7974,0.00
7975,0.00
7976,0.00
7977,0.00
7978,0.00
7979,40.00
7980,0.00
7981,40.00
7982,0.00
7983,0.00
7984,0.00
7985,40.00
7986,0.00
7987,0.00
7988,0.00
7989,40.00
7990,0.00
7991,0.00
7992,0.00
7993,0.00
7994,0.00
7995,0.00
7996,0.00
7997,40.00
7998,0.00
7999,40.00
