Channel			  :,CH1
Frequency			  :,F=  ?
Period 			  :,T=  ?
PK-PK				  :,Vpp=4.480V
Average			  :,V=-13.80mV
Vertical pos		  :,0.00mV
Probe attenuation	  :,10X
Voltage per ADC value:,40.00mV
Time interval		  :,0.00uS

index,CH1_Voltage(mV)
0,40.00
1,0.00
2,0.00
3,0.00
4,40.00
5,0.00
6,0.00
7,0.00
8,40.00
9,40.00
10,40.00
11,0.00
12,0.00
13,0.00
14,0.00
15,0.00
16,40.00
17,0.00
18,40.00
19,0.00
20,0.00
21,0.00
22,0.00
23,0.00
24,0.00
25,0.00
26,0.00
27,0.00
28,0.00
29,0.00
30,0.00
31,40.00
32,0.00
33,0.00
34,0.00
35,40.00
36,0.00
37,0.00
38,40.00
39,0.00
40,40.00
41,0.00
42,0.00
43,0.00
44,40.00
45,0.00
46,0.00
47,0.00
48,0.00
49,40.00
50,0.00
51,0.00
52,40.00
53,0.00
54,0.00
55,0.00
56,0.00
57,0.00
58,0.00
59,0.00
60,0.00
61,0.00
62,40.00
63,0.00
64,40.00
65,0.00
66,0.00
67,40.00
68,0.00
69,0.00
70,0.00
71,0.00
72,0.00
73,0.00
74,40.00
75,0.00
76,0.00
77,0.00
78,0.00
79,0.00
80,40.00
81,40.00
82,40.00
83,0.00
84,0.00
85,0.00
86,0.00
87,0.00
88,0.00
89,0.00
90,0.00
91,0.00
92,40.00
93,0.00
94,40.00
95,0.00
96,40.00
97,40.00
98,0.00
99,0.00
100,40.00
101,0.00
102,0.00
103,0.00
104,0.00
105,40.00
106,0.00
107,0.00
108,40.00
109,0.00
110,40.00
111,0.00
112,40.00
113,0.00
114,0.00
115,0.00
116,40.00
117,0.00
118,40.00
119,0.00
120,0.00
121,0.00
122,0.00
123,0.00
124,0.00
125,0.00
126,0.00
127,0.00
128,40.00
129,0.00
130,0.00
131,0.00
132,0.00
133,0.00
134,40.00
135,0.00
136,0.00
137,0.00
138,0.00
139,0.00
140,40.00
141,0.00
142,40.00
143,0.00
144,40.00
145,0.00
146,40.00
147,0.00
148,40.00
149,0.00
150,40.00
151,0.00
152,0.00
153,0.00
154,0.00
155,40.00
156,40.00
157,0.00
158,0.00
159,40.00
160,0.00
161,0.00
162,0.00
163,0.00
164,40.00
165,0.00
166,40.00
167,0.00
168,40.00
169,0.00
170,0.00
171,0.00
172,40.00
173,0.00
174,0.00
175,40.00
176,0.00
177,40.00
178,0.00
179,0.00
180,40.00
181,0.00
182,40.00
183,0.00
184,0.00
185,0.00
186,0.00
187,0.00
188,0.00
189,0.00
190,40.00
191,0.00
192,0.00
193,0.00
194,40.00
195,40.00
196,40.00
197,0.00
198,0.00
199,0.00
200,0.00
201,0.00
202,0.00
203,0.00
204,0.00
205,0.00
206,40.00
207,0.00
208,40.00
209,0.00
210,0.00
211,0.00
212,0.00
213,0.00
214,0.00
215,0.00
216,40.00
217,0.00
218,0.00
219,0.00
220,40.00
221,0.00
222,0.00
223,0.00
224,0.00
225,40.00
226,40.00
227,0.00
228,40.00
229,0.00
230,0.00
231,0.00
232,0.00
233,0.00
234,40.00
235,0.00
236,0.00
237,0.00
238,0.00
239,0.00
240,40.00
241,0.00
242,0.00
243,0.00
244,0.00
245,0.00
246,40.00
247,40.00
248,40.00
249,0.00
250,40.00
251,0.00
252,0.00
253,0.00
254,0.00
255,0.00
256,0.00
257,0.00
258,0.00
259,0.00
260,0.00
261,0.00
262,40.00
263,40.00
264,0.00
265,0.00
266,40.00
267,0.00
268,0.00
269,40.00
270,0.00
271,0.00
272,40.00
273,0.00
274,0.00
275,0.00
276,0.00
277,0.00
278,0.00
279,0.00
280,40.00
281,0.00
282,40.00
283,0.00
284,40.00
285,40.00
286,40.00
287,0.00
288,40.00
289,0.00
290,40.00
291,0.00
292,40.00
293,40.00
294,0.00
295,0.00
296,0.00
297,0.00
298,40.00
299,40.00
300,40.00
301,0.00
302,0.00
303,0.00
304,40.00
305,0.00
306,40.00
307,0.00
308,0.00
309,0.00
310,0.00
311,0.00
312,40.00
313,40.00
314,40.00
315,0.00
316,40.00
317,0.00
318,0.00
319,0.00
320,0.00
321,0.00
322,40.00
323,0.00
324,40.00
325,0.00
326,0.00
327,0.00
328,40.00
329,40.00
330,0.00
331,0.00
332,40.00
333,40.00
334,0.00
335,0.00
336,40.00
337,0.00
338,0.00
339,0.00
340,40.00
341,0.00
342,40.00
343,0.00
344,40.00
345,0.00
346,40.00
347,0.00
348,0.00
349,0.00
350,0.00
351,40.00
352,40.00
353,0.00
354,40.00
355,0.00
356,0.00
357,0.00
358,40.00
359,40.00
360,0.00
361,0.00
362,40.00
363,0.00
364,0.00
365,0.00
366,40.00
367,0.00
368,0.00
369,0.00
370,40.00
371,0.00
372,40.00
373,0.00
374,0.00
375,0.00
376,0.00
377,0.00
378,0.00
379,0.00
380,0.00
381,0.00
382,40.00
383,0.00
384,40.00
385,0.00
386,0.00
387,0.00
388,0.00
389,0.00
390,40.00
391,0.00
392,40.00
393,0.00
394,40.00
395,0.00
396,0.00
397,0.00
398,40.00
399,0.00
400,0.00
401,0.00
402,40.00
403,0.00
404,0.00
405,0.00
406,40.00
407,40.00
408,40.00
409,0.00
410,0.00
411,0.00
412,40.00
413,0.00
414,40.00
415,0.00
416,0.00
417,0.00
418,40.00
419,0.00
420,0.00
421,0.00
422,0.00
423,0.00
424,40.00
425,0.00
426,0.00
427,0.00
428,0.00
429,0.00
430,40.00
431,40.00
432,0.00
433,0.00
434,40.00
435,0.00
436,40.00
437,0.00
438,0.00
439,40.00
440,0.00
441,0.00
442,40.00
443,0.00
444,0.00
445,40.00
446,0.00
447,0.00
448,40.00
449,0.00
450,0.00
451,0.00
452,40.00
453,0.00
454,0.00
455,0.00
456,40.00
457,0.00
458,0.00
459,0.00
460,40.00
461,0.00
462,40.00
463,0.00
464,0.00
465,0.00
466,0.00
467,0.00
468,40.00
469,0.00
470,0.00
471,0.00
472,0.00
473,0.00
474,40.00
475,0.00
476,40.00
477,0.00
478,40.00
479,0.00
480,40.00
481,0.00
482,0.00
483,0.00
484,0.00
485,0.00
486,40.00
487,0.00
488,0.00
489,0.00
490,40.00
491,0.00
492,40.00
493,40.00
494,0.00
495,0.00
496,40.00
497,0.00
498,0.00
499,0.00
500,40.00
501,0.00
502,0.00
503,0.00
504,0.00
505,0.00
506,0.00
507,0.00
508,40.00
509,0.00
510,40.00
511,0.00
512,40.00
513,40.00
514,40.00
515,40.00
516,0.00
517,0.00
518,40.00
519,40.00
520,0.00
521,0.00
522,0.00
523,0.00
524,0.00
525,0.00
526,40.00
527,0.00
528,40.00
529,0.00
530,40.00
531,0.00
532,40.00
533,40.00
534,40.00
535,0.00
536,40.00
537,40.00
538,40.00
539,40.00
540,0.00
541,0.00
542,0.00
543,0.00
544,0.00
545,0.00
546,0.00
547,0.00
548,40.00
549,0.00
550,0.00
551,0.00
552,0.00
553,0.00
554,0.00
555,0.00
556,0.00
557,0.00
558,0.00
559,0.00
560,0.00
561,40.00
562,0.00
563,0.00
564,40.00
565,0.00
566,40.00
567,0.00
568,0.00
569,0.00
570,40.00
571,0.00
572,40.00
573,0.00
574,0.00
575,0.00
576,0.00
577,0.00
578,0.00
579,0.00
580,40.00
581,0.00
582,0.00
583,0.00
584,40.00
585,0.00
586,40.00
587,40.00
588,40.00
589,0.00
590,0.00
591,0.00
592,40.00
593,0.00
594,0.00
595,0.00
596,0.00
597,0.00
598,40.00
599,0.00
600,40.00
601,0.00
602,0.00
603,0.00
604,0.00
605,0.00
606,0.00
607,0.00
608,0.00
609,0.00
610,0.00
611,0.00
612,0.00
613,0.00
614,0.00
615,0.00
616,40.00
617,0.00
618,0.00
619,0.00
620,0.00
621,0.00
622,40.00
623,0.00
624,40.00
625,0.00
626,40.00
627,0.00
628,0.00
629,40.00
630,0.00
631,0.00
632,0.00
633,0.00
634,40.00
635,0.00
636,0.00
637,0.00
638,0.00
639,0.00
640,0.00
641,0.00
642,40.00
643,0.00
644,0.00
645,0.00
646,0.00
647,0.00
648,0.00
649,40.00
650,0.00
651,40.00
652,0.00
653,0.00
654,0.00
655,0.00
656,0.00
657,0.00
658,0.00
659,0.00
660,0.00
661,0.00
662,0.00
663,0.00
664,40.00
665,40.00
666,40.00
667,40.00
668,40.00
669,0.00
670,0.00
671,0.00
672,40.00
673,0.00
674,40.00
675,0.00
676,0.00
677,0.00
678,0.00
679,0.00
680,0.00
681,0.00
682,40.00
683,0.00
684,40.00
685,0.00
686,40.00
687,0.00
688,0.00
689,0.00
690,40.00
691,0.00
692,0.00
693,0.00
694,40.00
695,0.00
696,40.00
697,0.00
698,0.00
699,0.00
700,0.00
701,0.00
702,0.00
703,0.00
704,40.00
705,0.00
706,0.00
707,0.00
708,0.00
709,0.00
710,40.00
711,0.00
712,0.00
713,0.00
714,40.00
715,0.00
716,0.00
717,0.00
718,0.00
719,0.00
720,0.00
721,0.00
722,0.00
723,0.00
724,0.00
725,0.00
726,0.00
727,0.00
728,40.00
729,0.00
730,0.00
731,0.00
732,40.00
733,0.00
734,0.00
735,40.00
736,40.00
737,0.00
738,0.00
739,0.00
740,0.00
741,0.00
742,0.00
743,0.00
744,0.00
745,0.00
746,0.00
747,0.00
748,40.00
749,0.00
750,0.00
751,0.00
752,0.00
753,0.00
754,40.00
755,0.00
756,0.00
757,0.00
758,0.00
759,0.00
760,0.00
761,0.00
762,0.00
763,0.00
764,40.00
765,0.00
766,40.00
767,0.00
768,0.00
769,0.00
770,0.00
771,0.00
772,0.00
773,0.00
774,0.00
775,40.00
776,0.00
777,0.00
778,40.00
779,40.00
780,40.00
781,0.00
782,40.00
783,40.00
784,40.00
785,0.00
786,0.00
787,0.00
788,40.00
789,0.00
790,0.00
791,0.00
792,0.00
793,0.00
794,0.00
795,0.00
796,40.00
797,0.00
798,40.00
799,0.00
800,0.00
801,0.00
802,0.00
803,0.00
804,40.00
805,0.00
806,40.00
807,0.00
808,0.00
809,0.00
810,0.00
811,0.00
812,0.00
813,0.00
814,0.00
815,0.00
816,40.00
817,0.00
818,0.00
819,40.00
820,0.00
821,40.00
822,0.00
823,0.00
824,40.00
825,0.00
826,0.00
827,0.00
828,0.00
829,0.00
830,0.00
831,40.00
832,40.00
833,0.00
834,40.00
835,0.00
836,0.00
837,0.00
838,40.00
839,40.00
840,40.00
841,0.00
842,40.00
843,0.00
844,40.00
845,40.00
846,0.00
847,0.00
848,40.00
849,0.00
850,40.00
851,0.00
852,0.00
853,40.00
854,0.00
855,0.00
856,40.00
857,0.00
858,40.00
859,0.00
860,0.00
861,0.00
862,0.00
863,0.00
864,40.00
865,0.00
866,40.00
867,40.00
868,0.00
869,0.00
870,0.00
871,0.00
872,0.00
873,0.00
874,0.00
875,0.00
876,40.00
877,0.00
878,40.00
879,0.00
880,40.00
881,40.00
882,0.00
883,40.00
884,40.00
885,0.00
886,0.00
887,0.00
888,0.00
889,40.00
890,0.00
891,0.00
892,0.00
893,0.00
894,40.00
895,0.00
896,40.00
897,0.00
898,40.00
899,0.00
900,40.00
901,0.00
902,0.00
903,0.00
904,40.00
905,0.00
906,40.00
907,40.00
908,0.00
909,0.00
910,40.00
911,0.00
912,40.00
913,0.00
914,0.00
915,0.00
916,0.00
917,0.00
918,40.00
919,0.00
920,0.00
921,0.00
922,0.00
923,0.00
924,40.00
925,0.00
926,40.00
927,0.00
928,0.00
929,0.00
930,40.00
931,0.00
932,0.00
933,0.00
934,0.00
935,0.00
936,40.00
937,0.00
938,0.00
939,0.00
940,40.00
941,0.00
942,40.00
943,0.00
944,0.00
945,0.00
946,40.00
947,0.00
948,0.00
949,0.00
950,0.00
951,0.00
952,0.00
953,0.00
954,0.00
955,0.00
956,40.00
957,0.00
958,40.00
959,0.00
960,40.00
961,40.00
962,40.00
963,0.00
964,40.00
965,0.00
966,0.00
967,0.00
968,0.00
969,0.00
970,40.00
971,0.00
972,40.00
973,0.00
974,40.00
975,0.00
976,40.00
977,0.00
978,0.00
979,0.00
980,0.00
981,0.00
982,0.00
983,0.00
984,0.00
985,0.00
986,0.00
987,0.00
988,0.00
989,0.00
990,0.00
991,0.00
992,40.00
993,0.00
994,40.00
995,40.00
996,40.00
997,40.00
998,0.00
999,40.00
1000,40.00
1001,0.00
1002,0.00
1003,0.00
1004,0.00
1005,0.00
1006,0.00
1007,0.00
1008,40.00
1009,0.00
1010,40.00
1011,0.00
1012,40.00
1013,0.00
1014,40.00
1015,0.00
1016,40.00
1017,0.00
1018,0.00
1019,40.00
1020,0.00
1021,0.00
1022,0.00
1023,40.00
1024,40.00
1025,40.00
1026,0.00
1027,0.00
1028,0.00
1029,0.00
1030,40.00
1031,0.00
1032,40.00
1033,0.00
1034,40.00
1035,0.00
1036,0.00
1037,0.00
1038,0.00
1039,0.00
1040,40.00
1041,40.00
1042,40.00
1043,40.00
1044,0.00
1045,0.00
1046,0.00
1047,0.00
1048,0.00
1049,0.00
1050,0.00
1051,0.00
1052,0.00
1053,0.00
1054,40.00
1055,0.00
1056,40.00
1057,0.00
1058,0.00
1059,0.00
1060,0.00
1061,0.00
1062,0.00
1063,0.00
1064,0.00
1065,0.00
1066,0.00
1067,0.00
1068,0.00
1069,40.00
1070,40.00
1071,40.00
1072,40.00
1073,0.00
1074,0.00
1075,0.00
1076,0.00
1077,0.00
1078,40.00
1079,0.00
1080,40.00
1081,0.00
1082,0.00
1083,0.00
1084,0.00
1085,0.00
1086,0.00
1087,0.00
1088,0.00
1089,0.00
1090,40.00
1091,0.00
1092,0.00
1093,0.00
1094,0.00
1095,0.00
1096,40.00
1097,0.00
1098,40.00
1099,0.00
1100,40.00
1101,0.00
1102,40.00
1103,0.00
1104,40.00
1105,0.00
1106,40.00
1107,0.00
1108,0.00
1109,0.00
1110,0.00
1111,0.00
1112,0.00
1113,40.00
1114,0.00
1115,40.00
1116,0.00
1117,0.00
1118,0.00
1119,0.00
1120,40.00
1121,0.00
1122,0.00
1123,0.00
1124,0.00
1125,0.00
1126,0.00
1127,0.00
1128,40.00
1129,0.00
1130,0.00
1131,0.00
1132,0.00
1133,40.00
1134,40.00
1135,40.00
1136,40.00
1137,0.00
1138,0.00
1139,0.00
1140,0.00
1141,40.00
1142,0.00
1143,0.00
1144,40.00
1145,0.00
1146,40.00
1147,0.00
1148,40.00
1149,0.00
1150,40.00
1151,0.00
1152,40.00
1153,0.00
1154,0.00
1155,40.00
1156,0.00
1157,0.00
1158,0.00
1159,40.00
1160,0.00
1161,40.00
1162,40.00
1163,0.00
1164,40.00
1165,0.00
1166,0.00
1167,0.00
1168,0.00
1169,0.00
1170,40.00
1171,0.00
1172,0.00
1173,0.00
1174,40.00
1175,0.00
1176,0.00
1177,40.00
1178,40.00
1179,0.00
1180,0.00
1181,0.00
1182,0.00
1183,0.00
1184,40.00
1185,0.00
1186,0.00
1187,0.00
1188,40.00
1189,0.00
1190,0.00
1191,0.00
1192,40.00
1193,0.00
1194,0.00
1195,0.00
1196,40.00
1197,0.00
1198,0.00
1199,0.00
1200,40.00
1201,0.00
1202,0.00
1203,40.00
1204,0.00
1205,0.00
1206,40.00
1207,0.00
1208,0.00
1209,0.00
1210,0.00
1211,0.00
1212,40.00
1213,0.00
1214,40.00
1215,0.00
1216,40.00
1217,0.00
1218,40.00
1219,0.00
1220,0.00
1221,0.00
1222,0.00
1223,0.00
1224,40.00
1225,40.00
1226,0.00
1227,0.00
1228,0.00
1229,0.00
1230,40.00
1231,0.00
1232,0.00
1233,0.00
1234,0.00
1235,0.00
1236,40.00
1237,0.00
1238,0.00
1239,0.00
1240,0.00
1241,0.00
1242,0.00
1243,0.00
1244,40.00
1245,0.00
1246,0.00
1247,0.00
1248,40.00
1249,0.00
1250,0.00
1251,0.00
1252,40.00
1253,0.00
1254,0.00
1255,0.00
1256,40.00
1257,0.00
1258,0.00
1259,0.00
1260,0.00
1261,0.00
1262,40.00
1263,0.00
1264,40.00
1265,0.00
1266,0.00
1267,0.00
1268,0.00
1269,0.00
1270,40.00
1271,0.00
1272,40.00
1273,0.00
1274,40.00
1275,0.00
1276,40.00
1277,0.00
1278,40.00
1279,0.00
1280,40.00
1281,0.00
1282,40.00
1283,0.00
1284,40.00
1285,0.00
1286,40.00
1287,0.00
1288,0.00
1289,0.00
1290,0.00
1291,0.00
1292,40.00
1293,0.00
1294,0.00
1295,0.00
1296,0.00
1297,0.00
1298,0.00
1299,0.00
1300,40.00
1301,0.00
1302,0.00
1303,0.00
1304,0.00
1305,0.00
1306,40.00
1307,0.00
1308,0.00
1309,0.00
1310,40.00
1311,0.00
1312,0.00
1313,0.00
1314,0.00
1315,0.00
1316,40.00
1317,0.00
1318,0.00
1319,0.00
1320,0.00
1321,0.00
1322,0.00
1323,40.00
1324,0.00
1325,0.00
1326,40.00
1327,0.00
1328,40.00
1329,0.00
1330,40.00
1331,0.00
1332,0.00
1333,0.00
1334,0.00
1335,0.00
1336,40.00
1337,40.00
1338,40.00
1339,0.00
1340,40.00
1341,0.00
1342,0.00
1343,0.00
1344,40.00
1345,0.00
1346,40.00
1347,0.00
1348,40.00
1349,0.00
1350,0.00
1351,0.00
1352,0.00
1353,0.00
1354,0.00
1355,0.00
1356,0.00
1357,0.00
1358,0.00
1359,0.00
1360,40.00
1361,0.00
1362,0.00
1363,0.00
1364,40.00
1365,0.00
1366,0.00
1367,0.00
1368,40.00
1369,0.00
1370,0.00
1371,0.00
1372,40.00
1373,0.00
1374,40.00
1375,0.00
1376,40.00
1377,40.00
1378,0.00
1379,0.00
1380,0.00
1381,0.00
1382,0.00
1383,0.00
1384,0.00
1385,0.00
1386,0.00
1387,0.00
1388,0.00
1389,0.00
1390,40.00
1391,0.00
1392,0.00
1393,40.00
1394,120.00
1395,200.00
1396,320.00
1397,360.00
1398,240.00
1399,40.00
1400,-120.00
1401,-360.00
1402,-640.00
1403,-840.00
1404,-1000.00
1405,-1120.00
1406,-1200.00
1407,-1200.00
1408,-1200.00
1409,-1040.00
1410,-840.00
1411,-560.00
1412,-40.00
1413,360.00
1414,840.00
1415,1320.00
1416,1640.00
1417,1960.00
1418,2120.00
1419,2120.00
1420,2040.00
1421,1720.00
1422,1640.00
1423,1440.00
1424,1480.00
1425,1320.00
1426,1400.00
1427,1320.00
1428,1400.00
1429,1360.00
1430,1360.00
1431,1320.00
1432,1360.00
1433,1320.00
1434,1200.00
1435,880.00
1436,560.00
1437,120.00
1438,-360.00
1439,-880.00
1440,-1280.00
1441,-1640.00
1442,-1920.00
1443,-2040.00
1444,-2040.00
1445,-1880.00
1446,-1680.00
1447,-1440.00
1448,-1400.00
1449,-1320.00
1450,-1360.00
1451,-1280.00
1452,-1360.00
1453,-1320.00
1454,-1360.00
1455,-1360.00
1456,-1360.00
1457,-1360.00
1458,-1360.00
1459,-1200.00
1460,-960.00
1461,-520.00
1462,-120.00
1463,360.00
1464,840.00
1465,1320.00
1466,1640.00
1467,1960.00
1468,2120.00
1469,2080.00
1470,1960.00
1471,1680.00
1472,1520.00
1473,1360.00
1474,1360.00
1475,1320.00
1476,1360.00
1477,1320.00
1478,1360.00
1479,1360.00
1480,1440.00
1481,1360.00
1482,1440.00
1483,1360.00
1484,1280.00
1485,1000.00
1486,640.00
1487,160.00
1488,-280.00
1489,-840.00
1490,-1240.00
1491,-1600.00
1492,-1920.00
1493,-2040.00
1494,-2040.00
1495,-1880.00
1496,-1680.00
1497,-1440.00
1498,-1440.00
1499,-1360.00
1500,-1360.00
1501,-1320.00
1502,-1360.00
1503,-1360.00
1504,-1360.00
1505,-1400.00
1506,-1400.00
1507,-1400.00
1508,-1360.00
1509,-1200.00
1510,-920.00
1511,-520.00
1512,-80.00
1513,440.00
1514,840.00
1515,1320.00
1516,1680.00
1517,1960.00
1518,2160.00
1519,2080.00
1520,1960.00
1521,1680.00
1522,1560.00
1523,1360.00
1524,1360.00
1525,1320.00
1526,1360.00
1527,1320.00
1528,1400.00
1529,1400.00
1530,1480.00
1531,1360.00
1532,1480.00
1533,1360.00
1534,1280.00
1535,920.00
1536,600.00
1537,40.00
1538,-360.00
1539,-880.00
1540,-1320.00
1541,-1720.00
1542,-1960.00
1543,-2080.00
1544,-2080.00
1545,-2000.00
1546,-1720.00
1547,-1480.00
1548,-1440.00
1549,-1360.00
1550,-1360.00
1551,-1320.00
1552,-1360.00
1553,-1360.00
1554,-1400.00
1555,-1400.00
1556,-1400.00
1557,-1400.00
1558,-1360.00
1559,-1200.00
1560,-960.00
1561,-520.00
1562,-80.00
1563,440.00
1564,880.00
1565,1320.00
1566,1680.00
1567,1960.00
1568,2120.00
1569,2120.00
1570,1960.00
1571,1680.00
1572,1560.00
1573,1360.00
1574,1360.00
1575,1320.00
1576,1360.00
1577,1320.00
1578,1400.00
1579,1400.00
1580,1440.00
1581,1400.00
1582,1440.00
1583,1360.00
1584,1280.00
1585,920.00
1586,600.00
1587,80.00
1588,-360.00
1589,-840.00
1590,-1320.00
1591,-1680.00
1592,-1960.00
1593,-2080.00
1594,-2080.00
1595,-1960.00
1596,-1720.00
1597,-1480.00
1598,-1400.00
1599,-1320.00
1600,-1360.00
1601,-1320.00
1602,-1360.00
1603,-1360.00
1604,-1360.00
1605,-1400.00
1606,-1440.00
1607,-1400.00
1608,-1360.00
1609,-1200.00
1610,-960.00
1611,-520.00
1612,-80.00
1613,440.00
1614,880.00
1615,1320.00
1616,1680.00
1617,2000.00
1618,2120.00
1619,2080.00
1620,1960.00
1621,1680.00
1622,1560.00
1623,1360.00
1624,1400.00
1625,1320.00
1626,1360.00
1627,1320.00
1628,1400.00
1629,1360.00
1630,1480.00
1631,1400.00
1632,1440.00
1633,1400.00
1634,1280.00
1635,920.00
1636,640.00
1637,80.00
1638,-360.00
1639,-880.00
1640,-1320.00
1641,-1720.00
1642,-1960.00
1643,-2120.00
1644,-2080.00
1645,-1960.00
1646,-1720.00
1647,-1480.00
1648,-1400.00
1649,-1360.00
1650,-1360.00
1651,-1320.00
1652,-1360.00
1653,-1360.00
1654,-1400.00
1655,-1400.00
1656,-1440.00
1657,-1400.00
1658,-1360.00
1659,-1200.00
1660,-960.00
1661,-520.00
1662,-80.00
1663,360.00
1664,840.00
1665,1320.00
1666,1680.00
1667,2000.00
1668,2120.00
1669,2080.00
1670,1960.00
1671,1680.00
1672,1560.00
1673,1360.00
1674,1400.00
1675,1320.00
1676,1360.00
1677,1320.00
1678,1400.00
1679,1400.00
1680,1440.00
1681,1400.00
1682,1440.00
1683,1400.00
1684,1280.00
1685,920.00
1686,640.00
1687,80.00
1688,-360.00
1689,-840.00
1690,-1280.00
1691,-1680.00
1692,-1960.00
1693,-2080.00
1694,-2080.00
1695,-1960.00
1696,-1720.00
1697,-1480.00
1698,-1440.00
1699,-1320.00
1700,-1360.00
1701,-1320.00
1702,-1360.00
1703,-1360.00
1704,-1400.00
1705,-1400.00
1706,-1400.00
1707,-1400.00
1708,-1400.00
1709,-1240.00
1710,-920.00
1711,-520.00
1712,-80.00
1713,440.00
1714,840.00
1715,1360.00
1716,1680.00
1717,2040.00
1718,2120.00
1719,2080.00
1720,1960.00
1721,1760.00
1722,1560.00
1723,1360.00
1724,1400.00
1725,1320.00
1726,1360.00
1727,1320.00
1728,1400.00
1729,1400.00
1730,1440.00
1731,1400.00
1732,1440.00
1733,1360.00
1734,1280.00
1735,920.00
1736,640.00
1737,80.00
1738,-320.00
1739,-840.00
1740,-1280.00
1741,-1720.00
1742,-1960.00
1743,-2120.00
1744,-2080.00
1745,-1960.00
1746,-1680.00
1747,-1440.00
1748,-1440.00
1749,-1360.00
1750,-1360.00
1751,-1320.00
1752,-1360.00
1753,-1360.00
1754,-1360.00
1755,-1400.00
1756,-1440.00
1757,-1400.00
1758,-1360.00
1759,-1200.00
1760,-920.00
1761,-520.00
1762,-80.00
1763,440.00
1764,880.00
1765,1320.00
1766,1680.00
1767,2000.00
1768,2120.00
1769,2080.00
1770,1960.00
1771,1680.00
1772,1560.00
1773,1360.00
1774,1400.00
1775,1320.00
1776,1360.00
1777,1320.00
1778,1400.00
1779,1400.00
1780,1480.00
1781,1400.00
1782,1440.00
1783,1400.00
1784,1280.00
1785,920.00
1786,640.00
1787,120.00
1788,-360.00
1789,-840.00
1790,-1320.00
1791,-1680.00
1792,-1920.00
1793,-2080.00
1794,-2080.00
1795,-2000.00
1796,-1720.00
1797,-1480.00
1798,-1440.00
1799,-1360.00
1800,-1360.00
1801,-1360.00
1802,-1360.00
1803,-1400.00
1804,-1400.00
1805,-1400.00
1806,-1360.00
1807,-1240.00
1808,-920.00
1809,-560.00
1810,-80.00
1811,360.00
1812,840.00
1813,1320.00
1814,1680.00
1815,1960.00
1816,2120.00
1817,2080.00
1818,2000.00
1819,1760.00
1820,1560.00
1821,1360.00
1822,1400.00
1823,1320.00
1824,1360.00
1825,1320.00
1826,1400.00
1827,1360.00
1828,1480.00
1829,1360.00
1830,1440.00
1831,1360.00
1832,1280.00
1833,920.00
1834,600.00
1835,80.00
1836,-360.00
1837,-840.00
1838,-1320.00
1839,-1720.00
1840,-1960.00
1841,-2120.00
1842,-2080.00
1843,-1960.00
1844,-1720.00
1845,-1480.00
1846,-1400.00
1847,-1320.00
1848,-1360.00
1849,-1320.00
1850,-1360.00
1851,-1360.00
1852,-1400.00
1853,-1360.00
1854,-1400.00
1855,-1400.00
1856,-1360.00
1857,-1240.00
1858,-920.00
1859,-520.00
1860,-80.00
1861,360.00
1862,880.00
1863,1320.00
1864,1680.00
1865,1960.00
1866,2120.00
1867,2080.00
1868,1960.00
1869,1680.00
1870,1560.00
1871,1360.00
1872,1360.00
1873,1320.00
1874,1360.00
1875,1320.00
1876,1400.00
1877,1360.00
1878,1480.00
1879,1360.00
1880,1440.00
1881,1360.00
1882,1280.00
1883,920.00
1884,640.00
1885,80.00
1886,-360.00
1887,-840.00
1888,-1320.00
1889,-1680.00
1890,-1960.00
1891,-2080.00
1892,-2080.00
1893,-1960.00
1894,-1720.00
1895,-1480.00
1896,-1400.00
1897,-1320.00
1898,-1360.00
1899,-1320.00
1900,-1360.00
1901,-1360.00
1902,-1400.00
1903,-1400.00
1904,-1440.00
1905,-1400.00
1906,-1360.00
1907,-1240.00
1908,-920.00
1909,-520.00
1910,-80.00
1911,360.00
1912,840.00
1913,1320.00
1914,1680.00
1915,1960.00
1916,2120.00
1917,2080.00
1918,1960.00
1919,1760.00
1920,1560.00
1921,1360.00
1922,1400.00
1923,1320.00
1924,1400.00
1925,1320.00
1926,1400.00
1927,1360.00
1928,1480.00
1929,1400.00
1930,1440.00
1931,1360.00
1932,1280.00
1933,920.00
1934,600.00
1935,80.00
1936,-360.00
1937,-840.00
1938,-1320.00
1939,-1680.00
1940,-1960.00
1941,-2120.00
1942,-2080.00
1943,-1960.00
1944,-1720.00
1945,-1480.00
1946,-1400.00
1947,-1320.00
1948,-1360.00
1949,-1320.00
1950,-1360.00
1951,-1360.00
1952,-1360.00
1953,-1400.00
1954,-1440.00
1955,-1400.00
1956,-1360.00
1957,-1240.00
1958,-960.00
1959,-520.00
1960,-80.00
1961,440.00
1962,880.00
1963,1320.00
1964,1680.00
1965,1960.00
1966,2120.00
1967,2120.00
1968,2000.00
1969,1760.00
1970,1560.00
1971,1360.00
1972,1360.00
1973,1320.00
1974,1360.00
1975,1320.00
1976,1400.00
1977,1400.00
1978,1440.00
1979,1360.00
1980,1480.00
1981,1360.00
1982,1280.00
1983,960.00
1984,640.00
1985,120.00
1986,-320.00
1987,-840.00
1988,-1320.00
1989,-1680.00
1990,-1960.00
1991,-2080.00
1992,-2080.00
1993,-2000.00
1994,-1720.00
1995,-1480.00
1996,-1440.00
1997,-1360.00
1998,-1360.00
1999,-1320.00
2000,-1360.00
2001,-1360.00
2002,-1360.00
2003,-1400.00
2004,-1400.00
2005,-1400.00
2006,-1360.00
2007,-1200.00
2008,-960.00
2009,-520.00
2010,-80.00
2011,360.00
2012,840.00
2013,1320.00
2014,1680.00
2015,1960.00
2016,2160.00
2017,2120.00
2018,2000.00
2019,1680.00
2020,1560.00
2021,1360.00
2022,1360.00
2023,1320.00
2024,1360.00
2025,1320.00
2026,1400.00
2027,1400.00
2028,1480.00
2029,1400.00
2030,1480.00
2031,1360.00
2032,1280.00
2033,960.00
2034,600.00
2035,80.00
2036,-360.00
2037,-880.00
2038,-1320.00
2039,-1680.00
2040,-1960.00
2041,-2080.00
2042,-2080.00
2043,-2000.00
2044,-1720.00
2045,-1480.00
2046,-1440.00
2047,-1320.00
2048,-1360.00
2049,-1320.00
2050,-1360.00
2051,-1360.00
2052,-1400.00
2053,-1400.00
2054,-1400.00
2055,-1400.00
2056,-1360.00
2057,-1200.00
2058,-920.00
2059,-520.00
2060,-80.00
2061,440.00
2062,880.00
2063,1320.00
2064,1680.00
2065,2000.00
2066,2160.00
2067,2080.00
2068,1960.00
2069,1680.00
2070,1560.00
2071,1360.00
2072,1400.00
2073,1320.00
2074,1360.00
2075,1320.00
2076,1400.00
2077,1400.00
2078,1480.00
2079,1400.00
2080,1440.00
2081,1400.00
2082,1280.00
2083,920.00
2084,640.00
2085,120.00
2086,-360.00
2087,-840.00
2088,-1320.00
2089,-1680.00
2090,-1960.00
2091,-2080.00
2092,-2080.00
2093,-1960.00
2094,-1720.00
2095,-1480.00
2096,-1400.00
2097,-1360.00
2098,-1360.00
2099,-1320.00
2100,-1360.00
2101,-1360.00
2102,-1400.00
2103,-1400.00
2104,-1400.00
2105,-1400.00
2106,-1360.00
2107,-1200.00
2108,-920.00
2109,-520.00
2110,-80.00
2111,360.00
2112,840.00
2113,1360.00
2114,1680.00
2115,2000.00
2116,2160.00
2117,2080.00
2118,1960.00
2119,1760.00
2120,1560.00
2121,1360.00
2122,1400.00
2123,1320.00
2124,1360.00
2125,1320.00
2126,1400.00
2127,1400.00
2128,1480.00
2129,1400.00
2130,1440.00
2131,1360.00
2132,1280.00
2133,920.00
2134,640.00
2135,80.00
2136,-360.00
2137,-840.00
2138,-1320.00
2139,-1680.00
2140,-1960.00
2141,-2080.00
2142,-2080.00
2143,-1960.00
2144,-1720.00
2145,-1480.00
2146,-1440.00
2147,-1360.00
2148,-1360.00
2149,-1320.00
2150,-1360.00
2151,-1360.00
2152,-1360.00
2153,-1400.00
2154,-1400.00
2155,-1400.00
2156,-1360.00
2157,-1200.00
2158,-920.00
2159,-520.00
2160,-80.00
2161,440.00
2162,880.00
2163,1320.00
2164,1680.00
2165,2040.00
2166,2120.00
2167,2080.00
2168,1960.00
2169,1680.00
2170,1560.00
2171,1360.00
2172,1400.00
2173,1320.00
2174,1360.00
2175,1320.00
2176,1400.00
2177,1400.00
2178,1480.00
2179,1400.00
2180,1440.00
2181,1400.00
2182,1280.00
2183,920.00
2184,640.00
2185,80.00
2186,-360.00
2187,-880.00
2188,-1320.00
2189,-1680.00
2190,-1960.00
2191,-2080.00
2192,-2080.00
2193,-1960.00
2194,-1720.00
2195,-1480.00
2196,-1440.00
2197,-1360.00
2198,-1360.00
2199,-1320.00
2200,-1360.00
2201,-1360.00
2202,-1360.00
2203,-1400.00
2204,-1400.00
2205,-1400.00
2206,-1360.00
2207,-1200.00
2208,-920.00
2209,-520.00
2210,-80.00
2211,360.00
2212,880.00
2213,1320.00
2214,1680.00
2215,1960.00
2216,2120.00
2217,2080.00
2218,1960.00
2219,1680.00
2220,1560.00
2221,1360.00
2222,1400.00
2223,1320.00
2224,1360.00
2225,1320.00
2226,1400.00
2227,1360.00
2228,1480.00
2229,1400.00
2230,1440.00
2231,1400.00
2232,1280.00
2233,920.00
2234,640.00
2235,40.00
2236,-360.00
2237,-840.00
2238,-1320.00
2239,-1720.00
2240,-1960.00
2241,-2080.00
2242,-2080.00
2243,-1960.00
2244,-1680.00
2245,-1480.00
2246,-1400.00
2247,-1320.00
2248,-1360.00
2249,-1320.00
2250,-1360.00
2251,-1360.00
2252,-1360.00
2253,-1400.00
2254,-1440.00
2255,-1400.00
2256,-1360.00
2257,-1200.00
2258,-920.00
2259,-520.00
2260,-80.00
2261,400.00
2262,880.00
2263,1320.00
2264,1680.00
2265,2000.00
2266,2120.00
2267,2120.00
2268,1960.00
2269,1680.00
2270,1560.00
2271,1360.00
2272,1400.00
2273,1320.00
2274,1360.00
2275,1320.00
2276,1400.00
2277,1400.00
2278,1480.00
2279,1400.00
2280,1440.00
2281,1400.00
2282,1280.00
2283,920.00
2284,640.00
2285,40.00
2286,-360.00
2287,-840.00
2288,-1320.00
2289,-1720.00
2290,-1960.00
2291,-2080.00
2292,-2080.00
2293,-1960.00
2294,-1720.00
2295,-1480.00
2296,-1400.00
2297,-1320.00
2298,-1360.00
2299,-1320.00
2300,-1360.00
2301,-1360.00
2302,-1360.00
2303,-1400.00
2304,-1400.00
2305,-1400.00
2306,-1360.00
2307,-1200.00
2308,-920.00
2309,-520.00
2310,-40.00
2311,360.00
2312,880.00
2313,1320.00
2314,1680.00
2315,2000.00
2316,2120.00
2317,2080.00
2318,1960.00
2319,1680.00
2320,1560.00
2321,1360.00
2322,1400.00
2323,1320.00
2324,1360.00
2325,1320.00
2326,1400.00
2327,1400.00
2328,1480.00
2329,1400.00
2330,1440.00
2331,1400.00
2332,1280.00
2333,920.00
2334,640.00
2335,40.00
2336,-360.00
2337,-840.00
2338,-1320.00
2339,-1720.00
2340,-1960.00
2341,-2080.00
2342,-2080.00
2343,-1960.00
2344,-1720.00
2345,-1480.00
2346,-1440.00
2347,-1320.00
2348,-1360.00
2349,-1320.00
2350,-1360.00
2351,-1360.00
2352,-1360.00
2353,-1400.00
2354,-1440.00
2355,-1400.00
2356,-1360.00
2357,-1200.00
2358,-920.00
2359,-520.00
2360,-40.00
2361,440.00
2362,880.00
2363,1320.00
2364,1680.00
2365,2000.00
2366,2160.00
2367,2080.00
2368,1960.00
2369,1680.00
2370,1560.00
2371,1360.00
2372,1400.00
2373,1320.00
2374,1360.00
2375,1320.00
2376,1400.00
2377,1360.00
2378,1480.00
2379,1360.00
2380,1440.00
2381,1440.00
2382,1280.00
2383,920.00
2384,600.00
2385,40.00
2386,-360.00
2387,-840.00
2388,-1320.00
2389,-1680.00
2390,-1960.00
2391,-2120.00
2392,-2080.00
2393,-1960.00
2394,-1720.00
2395,-1480.00
2396,-1400.00
2397,-1320.00
2398,-1360.00
2399,-1320.00
2400,-1360.00
2401,-1400.00
2402,-1440.00
2403,-1400.00
2404,-1360.00
2405,-1200.00
2406,-920.00
2407,-520.00
2408,-80.00
2409,440.00
2410,880.00
2411,1360.00
2412,1680.00
2413,2000.00
2414,2160.00
2415,2080.00
2416,1960.00
2417,1680.00
2418,1560.00
2419,1360.00
2420,1400.00
2421,1320.00
2422,1360.00
2423,1320.00
2424,1400.00
2425,1400.00
2426,1480.00
2427,1360.00
2428,1440.00
2429,1400.00
2430,1280.00
2431,920.00
2432,640.00
2433,80.00
2434,-360.00
2435,-880.00
2436,-1320.00
2437,-1720.00
2438,-1960.00
2439,-2120.00
2440,-2080.00
2441,-1960.00
2442,-1720.00
2443,-1480.00
2444,-1440.00
2445,-1320.00
2446,-1360.00
2447,-1320.00
2448,-1360.00
2449,-1360.00
2450,-1360.00
2451,-1400.00
2452,-1400.00
2453,-1400.00
2454,-1360.00
2455,-1200.00
2456,-920.00
2457,-520.00
2458,-40.00
2459,440.00
2460,880.00
2461,1360.00
2462,1680.00
2463,2000.00
2464,2160.00
2465,2120.00
2466,1960.00
2467,1680.00
2468,1560.00
2469,1360.00
2470,1400.00
2471,1320.00
2472,1360.00
2473,1320.00
2474,1400.00
2475,1400.00
2476,1480.00
2477,1400.00
2478,1440.00
2479,1440.00
2480,1280.00
2481,920.00
2482,640.00
2483,80.00
2484,-360.00
2485,-880.00
2486,-1320.00
2487,-1680.00
2488,-1960.00
2489,-2120.00
2490,-2080.00
2491,-1960.00
2492,-1720.00
2493,-1480.00
2494,-1440.00
2495,-1320.00
2496,-1360.00
2497,-1320.00
2498,-1360.00
2499,-1360.00
2500,-1360.00
2501,-1400.00
2502,-1400.00
2503,-1400.00
2504,-1360.00
2505,-1200.00
2506,-920.00
2507,-520.00
2508,-80.00
2509,440.00
2510,880.00
2511,1320.00
2512,1680.00
2513,2000.00
2514,2160.00
2515,2080.00
2516,1960.00
2517,1680.00
2518,1560.00
2519,1360.00
2520,1400.00
2521,1320.00
2522,1360.00
2523,1320.00
2524,1400.00
2525,1360.00
2526,1480.00
2527,1360.00
2528,1440.00
2529,1400.00
2530,1280.00
2531,880.00
2532,600.00
2533,40.00
2534,-360.00
2535,-880.00
2536,-1320.00
2537,-1720.00
2538,-1960.00
2539,-2160.00
2540,-2080.00
2541,-1960.00
2542,-1720.00
2543,-1480.00
2544,-1440.00
2545,-1320.00
2546,-1360.00
2547,-1320.00
2548,-1360.00
2549,-1360.00
2550,-1360.00
2551,-1400.00
2552,-1440.00
2553,-1400.00
2554,-1360.00
2555,-1200.00
2556,-960.00
2557,-520.00
2558,-80.00
2559,440.00
2560,880.00
2561,1360.00
2562,1680.00
2563,2000.00
2564,2120.00
2565,2120.00
2566,1960.00
2567,1680.00
2568,1560.00
2569,1360.00
2570,1400.00
2571,1320.00
2572,1360.00
2573,1320.00
2574,1400.00
2575,1400.00
2576,1480.00
2577,1440.00
2578,1440.00
2579,1440.00
2580,1280.00
2581,920.00
2582,640.00
2583,80.00
2584,-360.00
2585,-880.00
2586,-1320.00
2587,-1720.00
2588,-1960.00
2589,-2080.00
2590,-2080.00
2591,-1960.00
2592,-1720.00
2593,-1480.00
2594,-1400.00
2595,-1320.00
2596,-1360.00
2597,-1320.00
2598,-1360.00
2599,-1360.00
2600,-1360.00
2601,-1400.00
2602,-1440.00
2603,-1400.00
2604,-1360.00
2605,-1200.00
2606,-920.00
2607,-520.00
2608,-40.00
2609,440.00
2610,880.00
2611,1360.00
2612,1680.00
2613,2040.00
2614,2160.00
2615,2080.00
2616,1960.00
2617,1680.00
2618,1560.00
2619,1360.00
2620,1400.00
2621,1320.00
2622,1360.00
2623,1320.00
2624,1400.00
2625,1440.00
2626,1440.00
2627,1360.00
2628,1440.00
2629,1400.00
2630,1280.00
2631,920.00
2632,600.00
2633,80.00
2634,-360.00
2635,-880.00
2636,-1320.00
2637,-1720.00
2638,-1960.00
2639,-2120.00
2640,-2080.00
2641,-1960.00
2642,-1720.00
2643,-1480.00
2644,-1440.00
2645,-1320.00
2646,-1360.00
2647,-1320.00
2648,-1360.00
2649,-1360.00
2650,-1360.00
2651,-1400.00
2652,-1400.00
2653,-1400.00
2654,-1360.00
2655,-1200.00
2656,-920.00
2657,-520.00
2658,-80.00
2659,360.00
2660,880.00
2661,1320.00
2662,1680.00
2663,2040.00
2664,2160.00
2665,2080.00
2666,1960.00
2667,1680.00
2668,1560.00
2669,1360.00
2670,1400.00
2671,1320.00
2672,1360.00
2673,1320.00
2674,1400.00
2675,1360.00
2676,1440.00
2677,1400.00
2678,1440.00
2679,1400.00
2680,1280.00
2681,920.00
2682,600.00
2683,40.00
2684,-360.00
2685,-880.00
2686,-1320.00
2687,-1720.00
2688,-1960.00
2689,-2080.00
2690,-2080.00
2691,-1960.00
2692,-1680.00
2693,-1480.00
2694,-1440.00
2695,-1320.00
2696,-1360.00
2697,-1320.00
2698,-1360.00
2699,-1360.00
2700,-1400.00
2701,-1400.00
2702,-1440.00
2703,-1400.00
2704,-1360.00
2705,-1200.00
2706,-920.00
2707,-520.00
2708,-80.00
2709,440.00
2710,880.00
2711,1320.00
2712,1680.00
2713,2000.00
2714,2120.00
2715,2120.00
2716,1960.00
2717,1680.00
2718,1560.00
2719,1360.00
2720,1400.00
2721,1320.00
2722,1360.00
2723,1320.00
2724,1400.00
2725,1400.00
2726,1440.00
2727,1400.00
2728,1440.00
2729,1400.00
2730,1240.00
2731,920.00
2732,640.00
2733,80.00
2734,-360.00
2735,-840.00
2736,-1320.00
2737,-1720.00
2738,-1960.00
2739,-2080.00
2740,-2080.00
2741,-1880.00
2742,-1720.00
2743,-1480.00
2744,-1440.00
2745,-1320.00
2746,-1360.00
2747,-1320.00
2748,-1360.00
2749,-1360.00
2750,-1360.00
2751,-1400.00
2752,-1400.00
2753,-1400.00
2754,-1360.00
2755,-1200.00
2756,-920.00
2757,-520.00
2758,-40.00
2759,440.00
2760,880.00
2761,1320.00
2762,1680.00
2763,2000.00
2764,2160.00
2765,2080.00
2766,1960.00
2767,1680.00
2768,1560.00
2769,1360.00
2770,1400.00
2771,1320.00
2772,1360.00
2773,1320.00
2774,1400.00
2775,1360.00
2776,1480.00
2777,1400.00
2778,1480.00
2779,1360.00
2780,1280.00
2781,920.00
2782,640.00
2783,40.00
2784,-360.00
2785,-880.00
2786,-1320.00
2787,-1720.00
2788,-1960.00
2789,-2080.00
2790,-2080.00
2791,-1960.00
2792,-1680.00
2793,-1480.00
2794,-1400.00
2795,-1360.00
2796,-1360.00
2797,-1320.00
2798,-1360.00
2799,-1360.00
2800,-1360.00
2801,-1400.00
2802,-1400.00
2803,-1400.00
2804,-1360.00
2805,-1200.00
2806,-920.00
2807,-520.00
2808,-40.00
2809,440.00
2810,880.00
2811,1360.00
2812,1680.00
2813,2000.00
2814,2160.00
2815,2080.00
2816,1960.00
2817,1680.00
2818,1560.00
2819,1360.00
2820,1400.00
2821,1320.00
2822,1360.00
2823,1320.00
2824,1400.00
2825,1400.00
2826,1480.00
2827,1360.00
2828,1440.00
2829,1400.00
2830,1280.00
2831,920.00
2832,600.00
2833,40.00
2834,-360.00
2835,-880.00
2836,-1320.00
2837,-1720.00
2838,-1960.00
2839,-2160.00
2840,-2080.00
2841,-1960.00
2842,-1680.00
2843,-1480.00
2844,-1400.00
2845,-1360.00
2846,-1360.00
2847,-1320.00
2848,-1360.00
2849,-1360.00
2850,-1400.00
2851,-1400.00
2852,-1440.00
2853,-1400.00
2854,-1360.00
2855,-1200.00
2856,-920.00
2857,-520.00
2858,-40.00
2859,440.00
2860,880.00
2861,1360.00
2862,1680.00
2863,2000.00
2864,2160.00
2865,2080.00
2866,1960.00
2867,1680.00
2868,1560.00
2869,1360.00
2870,1360.00
2871,1320.00
2872,1360.00
2873,1320.00
2874,1400.00
2875,1400.00
2876,1440.00
2877,1360.00
2878,1480.00
2879,1360.00
2880,1240.00
2881,920.00
2882,600.00
2883,40.00
2884,-360.00
2885,-880.00
2886,-1360.00
2887,-1720.00
2888,-1960.00
2889,-2080.00
2890,-2080.00
2891,-1960.00
2892,-1680.00
2893,-1480.00
2894,-1440.00
2895,-1320.00
2896,-1360.00
2897,-1320.00
2898,-1360.00
2899,-1360.00
2900,-1400.00
2901,-1400.00
2902,-1440.00
2903,-1400.00
2904,-1360.00
2905,-1200.00
2906,-920.00
2907,-520.00
2908,-40.00
2909,440.00
2910,880.00
2911,1360.00
2912,1680.00
2913,2040.00
2914,2160.00
2915,2120.00
2916,1960.00
2917,1680.00
2918,1560.00
2919,1360.00
2920,1400.00
2921,1320.00
2922,1360.00
2923,1320.00
2924,1400.00
2925,1400.00
2926,1440.00
2927,1400.00
2928,1440.00
2929,1400.00
2930,1280.00
2931,920.00
2932,600.00
2933,40.00
2934,-360.00
2935,-880.00
2936,-1320.00
2937,-1720.00
2938,-1960.00
2939,-2080.00
2940,-2080.00
2941,-1960.00
2942,-1720.00
2943,-1480.00
2944,-1440.00
2945,-1320.00
2946,-1360.00
2947,-1320.00
2948,-1360.00
2949,-1360.00
2950,-1400.00
2951,-1400.00
2952,-1400.00
2953,-1400.00
2954,-1360.00
2955,-1200.00
2956,-920.00
2957,-520.00
2958,-40.00
2959,440.00
2960,880.00
2961,1360.00
2962,1680.00
2963,2000.00
2964,2160.00
2965,2080.00
2966,1960.00
2967,1640.00
2968,1320.00
2969,880.00
2970,400.00
2971,-80.00
2972,-520.00
2973,-1000.00
2974,-1400.00
2975,-1720.00
2976,-1960.00
2977,-2040.00
2978,-1960.00
2979,-1760.00
2980,-1480.00
2981,-1120.00
2982,-680.00
2983,-200.00
2984,280.00
2985,760.00
2986,1280.00
2987,1640.00
2988,1960.00
2989,2080.00
2990,2120.00
2991,1960.00
2992,1800.00
2993,1600.00
2994,1600.00
2995,1440.00
2996,1480.00
2997,1360.00
2998,1360.00
2999,1320.00
3000,1280.00
3001,1240.00
3002,1240.00
3003,1080.00
3004,880.00
3005,480.00
3006,120.00
3007,-320.00
3008,-760.00
3009,-1240.00
3010,-1640.00
3011,-1840.00
3012,-2000.00
3013,-2000.00
3014,-1880.00
3015,-1560.00
3016,-1280.00
3017,-920.00
3018,-360.00
3019,120.00
3020,640.00
3021,1080.00
3022,1480.00
3023,1800.00
3024,2040.00
3025,2080.00
3026,2040.00
3027,1760.00
3028,1520.00
3029,1080.00
3030,680.00
3031,120.00
3032,-360.00
3033,-880.00
3034,-1320.00
3035,-1720.00
3036,-2000.00
3037,-2160.00
3038,-2160.00
3039,-2080.00
3040,-1880.00
3041,-1680.00
3042,-1640.00
3043,-1520.00
3044,-1480.00
3045,-1440.00
3046,-1400.00
3047,-1360.00
3048,-1360.00
3049,-1280.00
3050,-1280.00
3051,-1280.00
3052,-1200.00
3053,-1000.00
3054,-720.00
3055,-400.00
3056,40.00
3057,480.00
3058,960.00
3059,1360.00
3060,1680.00
3061,2040.00
3062,2120.00
3063,2080.00
3064,1960.00
3065,1640.00
3066,1520.00
3067,1360.00
3068,1360.00
3069,1280.00
3070,1320.00
3071,1320.00
3072,1360.00
3073,1320.00
3074,1400.00
3075,1360.00
3076,1400.00
3077,1360.00
3078,1280.00
3079,1040.00
3080,640.00
3081,160.00
3082,-240.00
3083,-760.00
3084,-1240.00
3085,-1600.00
3086,-1880.00
3087,-2040.00
3088,-2000.00
3089,-1840.00
3090,-1640.00
3091,-1400.00
3092,-1360.00
3093,-1320.00
3094,-1320.00
3095,-1280.00
3096,-1280.00
3097,-1320.00
3098,-1360.00
3099,-1360.00
3100,-1360.00
3101,-1360.00
3102,-1360.00
3103,-1280.00
3104,-1000.00
3105,-600.00
3106,-160.00
3107,280.00
3108,760.00
3109,1240.00
3110,1640.00
3111,1920.00
3112,2040.00
3113,2040.00
3114,1960.00
3115,1680.00
3116,1560.00
3117,1360.00
3118,1400.00
3119,1360.00
3120,1360.00
3121,1320.00
3122,1440.00
3123,1360.00
3124,1480.00
3125,1440.00
3126,1440.00
3127,1400.00
3128,1280.00
3129,920.00
3130,640.00
3131,80.00
3132,-360.00
3133,-880.00
3134,-1320.00
3135,-1720.00
3136,-2000.00
3137,-2120.00
3138,-2080.00
3139,-1920.00
3140,-1680.00
3141,-1280.00
3142,-840.00
3143,-400.00
3144,80.00
3145,560.00
3146,1040.00
3147,1360.00
3148,1760.00
3149,1960.00
3150,2040.00
3151,1960.00
3152,1800.00
3153,1440.00
3154,1200.00
3155,760.00
3156,280.00
3157,-240.00
3158,-680.00
3159,-1200.00
3160,-1640.00
3161,-1880.00
3162,-2040.00
3163,-2080.00
3164,-2000.00
3165,-1760.00
3166,-1400.00
3167,-1040.00
3168,-520.00
3169,0.00
3170,520.00
3171,1040.00
3172,1520.00
3173,1840.00
3174,2120.00
3175,2200.00
3176,2200.00
3177,1960.00
3178,1640.00
3179,1240.00
3180,840.00
3181,200.00
3182,-240.00
3183,-840.00
3184,-1280.00
3185,-1680.00
3186,-2000.00
3187,-2200.00
3188,-2200.00
3189,-2080.00
3190,-1880.00
3191,-1720.00
3192,-1640.00
3193,-1520.00
3194,-1480.00
3195,-1400.00
3196,-1360.00
3197,-1360.00
3198,-1360.00
3199,-1280.00
3200,-1280.00
3201,-1280.00
3202,-1200.00
3203,-1000.00
3204,-760.00
3205,-440.00
3206,40.00
3207,480.00
3208,960.00
3209,1360.00
3210,1680.00
3211,1960.00
3212,2120.00
3213,2080.00
3214,1960.00
3215,1680.00
3216,1560.00
3217,1360.00
3218,1400.00
3219,1360.00
3220,1400.00
3221,1320.00
3222,1440.00
3223,1360.00
3224,1480.00
3225,1440.00
3226,1400.00
3227,1360.00
3228,1240.00
3229,920.00
3230,600.00
3231,40.00
3232,-360.00
3233,-880.00
3234,-1320.00
3235,-1720.00
3236,-2000.00
3237,-2160.00
3238,-2080.00
3239,-1920.00
3240,-1640.00
3241,-1200.00
3242,-760.00
3243,-320.00
3244,200.00
3245,600.00
3246,1120.00
3247,1480.00
3248,1800.00
3249,1960.00
3250,2080.00
3251,1960.00
3252,1800.00
3253,1360.00
3254,1120.00
3255,640.00
3256,160.00
3257,-360.00
3258,-760.00
3259,-1320.00
3260,-1680.00
3261,-2000.00
3262,-2120.00
3263,-2160.00
3264,-2040.00
3265,-1760.00
3266,-1440.00
3267,-1000.00
3268,-480.00
3269,0.00
3270,560.00
3271,1080.00
3272,1520.00
3273,1880.00
3274,2120.00
3275,2200.00
3276,2200.00
3277,1960.00
3278,1640.00
3279,1240.00
3280,840.00
3281,200.00
3282,-240.00
3283,-840.00
3284,-1280.00
3285,-1720.00
3286,-2000.00
3287,-2200.00
3288,-2200.00
3289,-2080.00
3290,-1880.00
3291,-1680.00
3292,-1640.00
3293,-1560.00
3294,-1480.00
3295,-1400.00
3296,-1400.00
3297,-1360.00
3298,-1360.00
3299,-1280.00
3300,-1280.00
3301,-1240.00
3302,-1200.00
3303,-1000.00
3304,-760.00
3305,-440.00
3306,0.00
3307,440.00
3308,920.00
3309,1360.00
3310,1680.00
3311,1960.00
3312,2080.00
3313,2120.00
3314,1960.00
3315,1680.00
3316,1560.00
3317,1360.00
3318,1400.00
3319,1360.00
3320,1360.00
3321,1360.00
3322,1400.00
3323,1360.00
3324,1440.00
3325,1440.00
3326,1400.00
3327,1360.00
3328,1240.00
3329,920.00
3330,600.00
3331,40.00
3332,-360.00
3333,-880.00
3334,-1320.00
3335,-1720.00
3336,-2000.00
3337,-2160.00
3338,-2080.00
3339,-1920.00
3340,-1680.00
3341,-1200.00
3342,-800.00
3343,-320.00
3344,160.00
3345,600.00
3346,1120.00
3347,1480.00
3348,1840.00
3349,2000.00
3350,2080.00
3351,1960.00
3352,1800.00
3353,1360.00
3354,1120.00
3355,640.00
3356,200.00
3357,-360.00
3358,-800.00
3359,-1320.00
3360,-1680.00
3361,-2000.00
3362,-2120.00
3363,-2160.00
3364,-2040.00
3365,-1800.00
3366,-1680.00
3367,-1560.00
3368,-1480.00
3369,-1360.00
3370,-1360.00
3371,-1320.00
3372,-1280.00
3373,-1280.00
3374,-1240.00
3375,-1200.00
3376,-1200.00
3377,-1160.00
3378,-1080.00
3379,-880.00
3380,-480.00
3381,0.00
3382,360.00
3383,880.00
3384,1280.00
3385,1640.00
3386,1920.00
3387,2040.00
3388,2000.00
3389,1880.00
3390,1640.00
3391,1440.00
3392,1440.00
3393,1320.00
3394,1320.00
3395,1320.00
3396,1360.00
3397,1320.00
3398,1400.00
3399,1360.00
3400,1400.00
3401,1360.00
3402,1400.00
3403,1240.00
3404,1040.00
3405,680.00
3406,240.00
3407,-240.00
3408,-680.00
3409,-1200.00
3410,-1560.00
3411,-1840.00
3412,-2000.00
3413,-2000.00
3414,-1920.00
3415,-1600.00
3416,-1480.00
3417,-1360.00
3418,-1320.00
3419,-1240.00
3420,-1280.00
3421,-1280.00
3422,-1280.00
3423,-1320.00
3424,-1360.00
3425,-1400.00
3426,-1360.00
3427,-1360.00
3428,-1240.00
3429,-960.00
3430,-640.00
3431,-120.00
3432,280.00
3433,760.00
3434,1240.00
3435,1640.00
3436,1920.00
3437,2040.00
3438,2040.00
3439,1920.00
3440,1680.00
3441,1440.00
3442,1480.00
3443,1360.00
3444,1400.00
3445,1360.00
3446,1400.00
3447,1360.00
3448,1480.00
3449,1360.00
3450,1480.00
3451,1400.00
3452,1440.00
3453,1240.00
3454,960.00
3455,600.00
3456,160.00
3457,-360.00
3458,-800.00
3459,-1280.00
3460,-1680.00
3461,-1960.00
3462,-2080.00
3463,-2080.00
3464,-2000.00
3465,-1640.00
3466,-1360.00
3467,-960.00
3468,-360.00
3469,120.00
3470,560.00
3471,1080.00
3472,1480.00
3473,1760.00
3474,1960.00
3475,2040.00
3476,2000.00
3477,1760.00
3478,1520.00
3479,1160.00
3480,760.00
3481,200.00
3482,-200.00
3483,-760.00
3484,-1200.00
3485,-1600.00
3486,-1880.00
3487,-2080.00
3488,-2080.00
3489,-2000.00
3490,-1760.00
3491,-1360.00
3492,-1000.00
3493,-520.00
3494,0.00
3495,480.00
3496,1040.00
3497,1480.00
3498,1880.00
3499,2120.00
3500,2240.00
3501,2120.00
3502,2000.00
3503,1600.00
3504,1320.00
3505,800.00
3506,280.00
3507,-280.00
3508,-720.00
3509,-1280.00
3510,-1680.00
3511,-2000.00
3512,-2160.00
3513,-2200.00
3514,-2080.00
3515,-1800.00
3516,-1440.00
3517,-1040.00
3518,-520.00
3519,0.00
3520,480.00
3521,1000.00
3522,1480.00
3523,1800.00
3524,2080.00
3525,2200.00
3526,2160.00
3527,1920.00
3528,1640.00
3529,1280.00
3530,920.00
3531,320.00
3532,-120.00
3533,-720.00
3534,-1200.00
3535,-1600.00
3536,-1920.00
3537,-2120.00
3538,-2120.00
3539,-2000.00
3540,-1760.00
3541,-1360.00
3542,-1000.00
3543,-520.00
3544,0.00
3545,520.00
3546,1040.00
3547,1480.00
3548,1920.00
3549,2120.00
3550,2240.00
3551,2120.00
3552,1960.00
3553,1560.00
3554,1280.00
3555,760.00
3556,240.00
3557,-280.00
3558,-760.00
3559,-1280.00
3560,-1680.00
3561,-2000.00
3562,-2160.00
3563,-2200.00
3564,-2080.00
3565,-1800.00
3566,-1680.00
3567,-1560.00
3568,-1440.00
3569,-1360.00
3570,-1360.00
3571,-1280.00
3572,-1320.00
3573,-1280.00
3574,-1240.00
3575,-1200.00
3576,-1240.00
3577,-1200.00
3578,-1080.00
3579,-880.00
3580,-520.00
3581,-80.00
3582,320.00
3583,840.00
3584,1280.00
3585,1640.00
3586,1920.00
3587,2040.00
3588,2000.00
3589,1880.00
3590,1640.00
3591,1240.00
3592,960.00
3593,400.00
3594,-40.00
3595,-520.00
3596,-920.00
3597,-1400.00
3598,-1720.00
3599,-1920.00
3600,-1800.00
3601,-1440.00
3602,-1160.00
3603,-760.00
3604,-200.00
3605,280.00
3606,760.00
3607,1240.00
3608,1640.00
3609,1920.00
3610,2120.00
3611,2120.00
3612,2040.00
3613,1800.00
3614,1680.00
3615,1600.00
3616,1600.00
3617,1480.00
3618,1520.00
3619,1400.00
3620,1440.00
3621,1360.00
3622,1360.00
3623,1320.00
3624,1320.00
3625,1200.00
3626,1080.00
3627,800.00
3628,400.00
3629,0.00
3630,-440.00
3631,-920.00
3632,-1360.00
3633,-1720.00
3634,-1960.00
3635,-2080.00
3636,-2040.00
3637,-1840.00
3638,-1680.00
3639,-1440.00
3640,-1360.00
3641,-1280.00
3642,-1280.00
3643,-1280.00
3644,-1320.00
3645,-1320.00
3646,-1320.00
3647,-1320.00
3648,-1360.00
3649,-1360.00
3650,-1360.00
3651,-1200.00
3652,-960.00
3653,-560.00
3654,-160.00
3655,320.00
3656,760.00
3657,1240.00
3658,1600.00
3659,1960.00
3660,2080.00
3661,2040.00
3662,1920.00
3663,1640.00
3664,1480.00
3665,1320.00
3666,1360.00
3667,1280.00
3668,1320.00
3669,1320.00
3670,1360.00
3671,1360.00
3672,1400.00
3673,1360.00
3674,1440.00
3675,1360.00
3676,1280.00
3677,1040.00
3678,680.00
3679,200.00
3680,-240.00
3681,-720.00
3682,-1200.00
3683,-1560.00
3684,-1880.00
3685,-2040.00
3686,-2000.00
3687,-1840.00
3688,-1640.00
3689,-1240.00
3690,-840.00
3691,-440.00
3692,80.00
3693,560.00
3694,1040.00
3695,1360.00
3696,1720.00
3697,1920.00
3698,2040.00
3699,1960.00
3700,1800.00
3701,1440.00
3702,1200.00
3703,760.00
3704,240.00
3705,-280.00
3706,-680.00
3707,-1200.00
3708,-1640.00
3709,-1880.00
3710,-2040.00
3711,-2080.00
3712,-2000.00
3713,-1800.00
3714,-1680.00
3715,-1560.00
3716,-1480.00
3717,-1400.00
3718,-1360.00
3719,-1360.00
3720,-1320.00
3721,-1280.00
3722,-1280.00
3723,-1200.00
3724,-1200.00
3725,-1160.00
3726,-1080.00
3727,-840.00
3728,-480.00
3729,-40.00
3730,360.00
3731,880.00
3732,1320.00
3733,1640.00
3734,1920.00
3735,2000.00
3736,2000.00
3737,1800.00
3738,1640.00
3739,1440.00
3740,1440.00
3741,1320.00
3742,1360.00
3743,1320.00
3744,1360.00
3745,1320.00
3746,1360.00
3747,1320.00
3748,1400.00
3749,1360.00
3750,1400.00
3751,1240.00
3752,1000.00
3753,640.00
3754,200.00
3755,-280.00
3756,-720.00
3757,-1200.00
3758,-1640.00
3759,-1840.00
3760,-2000.00
3761,-2000.00
3762,-1880.00
3763,-1600.00
3764,-1480.00
3765,-1400.00
3766,-1320.00
3767,-1280.00
3768,-1280.00
3769,-1280.00
3770,-1320.00
3771,-1320.00
3772,-1360.00
3773,-1360.00
3774,-1400.00
3775,-1360.00
3776,-1240.00
3777,-960.00
3778,-640.00
3779,-120.00
3780,280.00
3781,800.00
3782,1280.00
3783,1640.00
3784,1920.00
3785,2040.00
3786,2040.00
3787,1920.00
3788,1640.00
3789,1240.00
3790,960.00
3791,360.00
3792,-40.00
3793,-520.00
3794,-1000.00
3795,-1400.00
3796,-1720.00
3797,-1920.00
3798,-2000.00
3799,-1880.00
3800,-1760.00
3801,-1400.00
3802,-1160.00
3803,-720.00
3804,-200.00
3805,280.00
3806,760.00
3807,1240.00
3808,1640.00
3809,1920.00
3810,2120.00
3811,2120.00
3812,2040.00
3813,1760.00
3814,1640.00
3815,1520.00
3816,1520.00
3817,1440.00
3818,1440.00
3819,1360.00
3820,1360.00
3821,1320.00
3822,1320.00
3823,1240.00
3824,1280.00
3825,1200.00
3826,1080.00
3827,880.00
3828,480.00
3829,40.00
3830,-320.00
3831,-840.00
3832,-1240.00
3833,-1600.00
3834,-1880.00
3835,-2000.00
3836,-2000.00
3837,-1800.00
3838,-1680.00
3839,-1400.00
3840,-1360.00
3841,-1320.00
3842,-1360.00
3843,-1280.00
3844,-1320.00
3845,-1320.00
3846,-1360.00
3847,-1360.00
3848,-1360.00
3849,-1360.00
3850,-1360.00
3851,-1200.00
3852,-960.00
3853,-600.00
3854,-160.00
3855,320.00
3856,800.00
3857,1280.00
3858,1640.00
3859,1920.00
3860,2080.00
3861,2040.00
3862,1920.00
3863,1560.00
3864,1280.00
3865,800.00
3866,360.00
3867,-120.00
3868,-600.00
3869,-1120.00
3870,-1520.00
3871,-1800.00
3872,-2000.00
3873,-2040.00
3874,-2000.00
3875,-1720.00
3876,-1440.00
3877,-1040.00
3878,-600.00
3879,-80.00
3880,360.00
3881,880.00
3882,1360.00
3883,1760.00
3884,2040.00
3885,2160.00
3886,2200.00
3887,2040.00
3888,1880.00
3889,1600.00
3890,1600.00
3891,1440.00
3892,1480.00
3893,1360.00
3894,1360.00
3895,1320.00
3896,1320.00
3897,1240.00
3898,1280.00
3899,1240.00
3900,1240.00
3901,1080.00
3902,920.00
3903,480.00
3904,80.00
3905,-360.00
3906,-760.00
3907,-1280.00
3908,-1640.00
3909,-1840.00
3910,-2000.00
3911,-2000.00
3912,-1880.00
3913,-1600.00
3914,-1480.00
3915,-1360.00
3916,-1360.00
3917,-1280.00
3918,-1280.00
3919,-1280.00
3920,-1320.00
3921,-1320.00
3922,-1360.00
3923,-1400.00
3924,-1360.00
3925,-1360.00
3926,-1240.00
3927,-960.00
3928,-600.00
3929,-120.00
3930,320.00
3931,800.00
3932,1280.00
3933,1680.00
3934,1960.00
3935,2080.00
3936,2040.00
3937,1840.00
3938,1640.00
3939,1400.00
3940,1440.00
3941,1320.00
3942,1320.00
3943,1320.00
3944,1320.00
3945,1320.00
3946,1360.00
3947,1360.00
3948,1400.00
3949,1400.00
3950,1440.00
3951,1240.00
3952,1040.00
3953,640.00
3954,240.00
3955,-240.00
3956,-680.00
3957,-1200.00
3958,-1600.00
3959,-1840.00
3960,-2000.00
3961,-2000.00
3962,-1920.00
3963,-1640.00
3964,-1520.00
3965,-1400.00
3966,-1360.00
3967,-1320.00
3968,-1360.00
3969,-1360.00
3970,-1360.00
3971,-1360.00
3972,-1440.00
3973,-1400.00
3974,-1400.00
3975,-1360.00
3976,-1240.00
3977,-920.00
3978,-560.00
3979,-40.00
3980,360.00
3981,880.00
3982,1320.00
3983,1760.00
3984,1960.00
3985,2120.00
3986,2120.00
3987,1920.00
3988,1720.00
3989,1480.00
3990,1440.00
3991,1320.00
3992,1360.00
3993,1320.00
3994,1360.00
3995,1360.00
3996,1440.00
3997,1360.00
3998,1480.00
3999,1400.00
4000,1400.00
4001,1200.00
4002,960.00
4003,600.00
4004,120.00
4005,-400.00
4006,-800.00
4007,-1280.00
4008,-1680.00
4009,-2000.00
4010,-2080.00
4011,-2080.00
4012,-1960.00
4013,-1600.00
4014,-1320.00
4015,-920.00
4016,-360.00
4017,160.00
4018,600.00
4019,1080.00
4020,1480.00
4021,1760.00
4022,1960.00
4023,2000.00
4024,1960.00
4025,1680.00
4026,1520.00
4027,1120.00
4028,760.00
4029,200.00
4030,-240.00
4031,-760.00
4032,-1240.00
4033,-1600.00
4034,-1920.00
4035,-2080.00
4036,-2080.00
4037,-2000.00
4038,-1760.00
4039,-1320.00
4040,-960.00
4041,-520.00
4042,0.00
4043,480.00
4044,1040.00
4045,1480.00
4046,1880.00
4047,2120.00
4048,2240.00
4049,2120.00
4050,1960.00
4051,1560.00
4052,1280.00
4053,760.00
4054,240.00
4055,-280.00
4056,-720.00
4057,-1320.00
4058,-1680.00
4059,-2000.00
4060,-2160.00
4061,-2200.00
4062,-2080.00
4063,-1800.00
4064,-1720.00
4065,-1560.00
4066,-1520.00
4067,-1440.00
4068,-1440.00
4069,-1360.00
4070,-1360.00
4071,-1320.00
4072,-1320.00
4073,-1280.00
4074,-1240.00
4075,-1200.00
4076,-1080.00
4077,-840.00
4078,-400.00
4079,40.00
4080,480.00
4081,920.00
4082,1360.00
4083,1760.00
4084,1960.00
4085,2120.00
4086,2080.00
4087,1920.00
4088,1680.00
4089,1480.00
4090,1480.00
4091,1360.00
4092,1360.00
4093,1320.00
4094,1400.00
4095,1360.00
4096,1440.00
4097,1360.00
4098,1480.00
4099,1400.00
4100,1400.00
4101,1200.00
4102,960.00
4103,560.00
4104,80.00
4105,-400.00
4106,-840.00
4107,-1320.00
4108,-1680.00
4109,-2000.00
4110,-2080.00
4111,-2080.00
4112,-1960.00
4113,-1680.00
4114,-1480.00
4115,-1400.00
4116,-1320.00
4117,-1200.00
4118,-1240.00
4119,-1280.00
4120,-1320.00
4121,-1320.00
4122,-1360.00
4123,-1400.00
4124,-1400.00
4125,-1360.00
4126,-1240.00
4127,-960.00
4128,-640.00
4129,-160.00
4130,280.00
4131,800.00
4132,1280.00
4133,1640.00
4134,1920.00
4135,2040.00
4136,2040.00
4137,1920.00
4138,1680.00
4139,1480.00
4140,1480.00
4141,1360.00
4142,1400.00
4143,1320.00
4144,1400.00
4145,1360.00
4146,1440.00
4147,1360.00
4148,1480.00
4149,1440.00
4150,1400.00
4151,1240.00
4152,960.00
4153,600.00
4154,120.00
4155,-400.00
4156,-800.00
4157,-1280.00
4158,-1680.00
4159,-1960.00
4160,-2080.00
4161,-2080.00
4162,-1960.00
4163,-1680.00
4164,-1520.00
4165,-1400.00
4166,-1360.00
4167,-1320.00
4168,-1320.00
4169,-1320.00
4170,-1360.00
4171,-1360.00
4172,-1400.00
4173,-1400.00
4174,-1400.00
4175,-1360.00
4176,-1200.00
4177,-920.00
4178,-520.00
4179,-40.00
4180,400.00
4181,880.00
4182,1320.00
4183,1760.00
4184,1960.00
4185,2120.00
4186,2120.00
4187,1920.00
4188,1680.00
4189,1480.00
4190,1440.00
4191,1360.00
4192,1360.00
4193,1320.00
4194,1360.00
4195,1360.00
4196,1440.00
4197,1360.00
4198,1440.00
4199,1440.00
4200,960.00
4201,600.00
4202,120.00
4203,-400.00
4204,-800.00
4205,-1320.00
4206,-1680.00
4207,-2000.00
4208,-2080.00
4209,-2080.00
4210,-1960.00
4211,-1600.00
4212,-1320.00
4213,-920.00
4214,-360.00
4215,80.00
4216,640.00
4217,1080.00
4218,1480.00
4219,1760.00
4220,1960.00
4221,1960.00
4222,2000.00
4223,1760.00
4224,1520.00
4225,1120.00
4226,760.00
4227,200.00
4228,-200.00
4229,-800.00
4230,-1240.00
4231,-1600.00
4232,-1920.00
4233,-2080.00
4234,-2080.00
4235,-2000.00
4236,-1720.00
4237,-1320.00
4238,-960.00
4239,-520.00
4240,0.00
4241,480.00
4242,1040.00
4243,1480.00
4244,1920.00
4245,2120.00
4246,2240.00
4247,2120.00
4248,2000.00
4249,1560.00
4250,1320.00
4251,760.00
4252,240.00
4253,-280.00
4254,-760.00
4255,-1280.00
4256,-1680.00
4257,-2000.00
4258,-2160.00
4259,-2200.00
4260,-2080.00
4261,-1800.00
4262,-1480.00
4263,-1000.00
4264,-520.00
4265,0.00
4266,520.00
4267,1000.00
4268,1480.00
4269,1800.00
4270,2080.00
4271,2200.00
4272,2160.00
4273,1920.00
4274,1640.00
4275,1240.00
4276,880.00
4277,280.00
4278,-160.00
4279,-720.00
4280,-1200.00
4281,-1600.00
4282,-1920.00
4283,-2080.00
4284,-2080.00
4285,-2000.00
4286,-1760.00
4287,-1360.00
4288,-960.00
4289,-520.00
4290,40.00
4291,560.00
4292,1080.00
4293,1480.00
4294,1920.00
4295,2120.00
4296,2240.00
4297,2120.00
4298,1960.00
4299,1560.00
4300,1240.00
4301,760.00
4302,240.00
4303,-320.00
4304,-760.00
4305,-1320.00
4306,-1680.00
4307,-2000.00
4308,-2200.00
4309,-2200.00
4310,-2040.00
4311,-1760.00
4312,-1440.00
4313,-1000.00
4314,-440.00
4315,0.00
4316,600.00
4317,1080.00
4318,1560.00
4319,1920.00
4320,2160.00
4321,2200.00
4322,2200.00
4323,1920.00
4324,1640.00
4325,1200.00
4326,800.00
4327,160.00
4328,-280.00
4329,-880.00
4330,-1320.00
4331,-1720.00
4332,-2000.00
4333,-2200.00
4334,-2160.00
4335,-2080.00
4336,-1760.00
4337,-1360.00
4338,-960.00
4339,-520.00
4340,80.00
4341,560.00
4342,1080.00
4343,1480.00
4344,1920.00
4345,2120.00
4346,2240.00
4347,2120.00
4348,1960.00
4349,1560.00
4350,1280.00
4351,760.00
4352,240.00
4353,-320.00
4354,-760.00
4355,-1320.00
4356,-1680.00
4357,-2000.00
4358,-2200.00
4359,-2200.00
4360,-2080.00
4361,-1760.00
4362,-1400.00
4363,-1000.00
4364,-440.00
4365,40.00
4366,560.00
4367,1080.00
4368,1560.00
4369,1920.00
4370,2160.00
4371,2200.00
4372,2200.00
4373,1920.00
4374,1640.00
4375,1200.00
4376,800.00
4377,200.00
4378,-280.00
4379,-840.00
4380,-1320.00
4381,-1720.00
4382,-2000.00
4383,-2160.00
4384,-2160.00
4385,-2040.00
4386,-1760.00
4387,-1360.00
4388,-960.00
4389,-520.00
4390,40.00
4391,560.00
4392,1080.00
4393,1520.00
4394,1960.00
4395,2120.00
4396,2240.00
4397,2120.00
4398,1960.00
4399,1560.00
4400,1280.00
4401,760.00
4402,240.00
4403,-320.00
4404,-760.00
4405,-1320.00
4406,-1680.00
4407,-2000.00
4408,-2200.00
4409,-2200.00
4410,-2040.00
4411,-1800.00
4412,-1680.00
4413,-1560.00
4414,-1480.00
4415,-1360.00
4416,-1360.00
4417,-1280.00
4418,-1280.00
4419,-1280.00
4420,-1240.00
4421,-1200.00
4422,-1200.00
4423,-1160.00
4424,-1080.00
4425,-840.00
4426,-480.00
4427,-40.00
4428,360.00
4429,880.00
4430,1320.00
4431,1640.00
4432,1920.00
4433,2040.00
4434,2000.00
4435,1840.00
4436,1640.00
4437,1240.00
4438,920.00
4439,400.00
4440,0.00
4441,-520.00
4442,-960.00
4443,-1400.00
4444,-1720.00
4445,-1920.00
4446,-2000.00
4447,-1880.00
4448,-1760.00
4449,-1440.00
4450,-1160.00
4451,-760.00
4452,-200.00
4453,280.00
4454,760.00
4455,1240.00
4456,1640.00
4457,1920.00
4458,2120.00
4459,2080.00
4460,2040.00
4461,1760.00
4462,1480.00
4463,1080.00
4464,640.00
4465,40.00
4466,-360.00
4467,-960.00
4468,-1400.00
4469,-1760.00
4470,-2000.00
4471,-2160.00
4472,-2080.00
4473,-1880.00
4474,-1640.00
4475,-1280.00
4476,-800.00
4477,-320.00
4478,200.00
4479,720.00
4480,1240.00
4481,1560.00
4482,1960.00
4483,2120.00
4484,2160.00
4485,2080.00
4486,1880.00
4487,1680.00
4488,1640.00
4489,1520.00
4490,1560.00
4491,1400.00
4492,1480.00
4493,1360.00
4494,1400.00
4495,1320.00
4496,1320.00
4497,1280.00
4498,1280.00
4499,1080.00
4500,840.00
4501,440.00
4502,0.00
4503,-440.00
4504,-840.00
4505,-1360.00
4506,-1680.00
4507,-1880.00
4508,-2080.00
4509,-2040.00
4510,-1920.00
4511,-1600.00
4512,-1280.00
4513,-920.00
4514,-360.00
4515,120.00
4516,600.00
4517,1040.00
4518,1440.00
4519,1760.00
4520,1960.00
4521,2040.00
4522,2000.00
4523,1760.00
4524,1520.00
4525,1160.00
4526,760.00
4527,200.00
4528,-200.00
4529,-720.00
4530,-1200.00
4531,-1600.00
4532,-1920.00
4533,-2080.00
4534,-2080.00
4535,-2000.00
4536,-1800.00
4537,-1400.00
4538,-1080.00
4539,-600.00
4540,-40.00
4541,440.00
4542,960.00
4543,1400.00
4544,1800.00
4545,2080.00
4546,2200.00
4547,2120.00
4548,2000.00
4549,1600.00
4550,1320.00
4551,880.00
4552,320.00
4553,-200.00
4554,-640.00
4555,-1160.00
4556,-1600.00
4557,-1880.00
4558,-2080.00
4559,-2160.00
4560,-2040.00
4561,-1760.00
4562,-1440.00
4563,-1040.00
4564,-520.00
4565,0.00
4566,480.00
4567,920.00
4568,1440.00
4569,1800.00
4570,2080.00
4571,2160.00
4572,2160.00
4573,1920.00
4574,1640.00
4575,1240.00
4576,920.00
4577,280.00
4578,-120.00
4579,-720.00
4580,-1200.00
4581,-1600.00
4582,-1920.00
4583,-2160.00
4584,-2080.00
4585,-2000.00
4586,-1760.00
4587,-1360.00
4588,-960.00
4589,-520.00
4590,40.00
4591,560.00
4592,1040.00
4593,1480.00
4594,1920.00
4595,2120.00
4596,2200.00
4597,2120.00
4598,1960.00
4599,1520.00
4600,1240.00
4601,760.00
4602,240.00
4603,-320.00
4604,-760.00
4605,-1320.00
4606,-1680.00
4607,-2000.00
4608,-2160.00
4609,-2200.00
4610,-2040.00
4611,-1800.00
4612,-1680.00
4613,-1560.00
4614,-1440.00
4615,-1360.00
4616,-1360.00
4617,-1280.00
4618,-1320.00
4619,-1280.00
4620,-1240.00
4621,-1200.00
4622,-1240.00
4623,-1200.00
4624,-1080.00
4625,-880.00
4626,-520.00
4627,-40.00
4628,320.00
4629,880.00
4630,1280.00
4631,1640.00
4632,1880.00
4633,2040.00
4634,2000.00
4635,1880.00
4636,1640.00
4637,1240.00
4638,960.00
4639,440.00
4640,0.00
4641,-520.00
4642,-960.00
4643,-1400.00
4644,-1720.00
4645,-1920.00
4646,-2000.00
4647,-1960.00
4648,-1800.00
4649,-1440.00
4650,-1200.00
4651,-840.00
4652,-240.00
4653,240.00
4654,760.00
4655,1200.00
4656,1640.00
4657,1920.00
4658,2120.00
4659,2120.00
4660,2040.00
4661,1800.00
4662,1680.00
4663,1600.00
4664,1600.00
4665,1480.00
4666,1520.00
4667,1400.00
4668,1440.00
4669,1360.00
4670,1360.00
4671,1320.00
4672,1320.00
4673,1200.00
4674,1080.00
4675,800.00
4676,400.00
4677,0.00
4678,-400.00
4679,-920.00
4680,-1360.00
4681,-1720.00
4682,-1960.00
4683,-2080.00
4684,-2040.00
4685,-1880.00
4686,-1640.00
4687,-1200.00
4688,-800.00
4689,-320.00
4690,160.00
4691,600.00
4692,1080.00
4693,1440.00
4694,1800.00
4695,2040.00
4696,2080.00
4697,2040.00
4698,1840.00
4699,1360.00
4700,1120.00
4701,640.00
4702,160.00
4703,-320.00
4704,-760.00
4705,-1280.00
4706,-1680.00
4707,-2000.00
4708,-2120.00
4709,-2160.00
4710,-2040.00
4711,-1800.00
4712,-1480.00
4713,-1040.00
4714,-560.00
4715,-40.00
4716,480.00
4717,1000.00
4718,1440.00
4719,1800.00
4720,2080.00
4721,2200.00
4722,2160.00
4723,1960.00
4724,1680.00
4725,1240.00
4726,960.00
4727,320.00
4728,-80.00
4729,-680.00
4730,-1160.00
4731,-1560.00
4732,-1920.00
4733,-2120.00
4734,-2120.00
4735,-2040.00
4736,-1800.00
4737,-1640.00
4738,-1680.00
4739,-1560.00
4740,-1480.00
4741,-1400.00
4742,-1400.00
4743,-1360.00
4744,-1360.00
4745,-1280.00
4746,-1280.00
4747,-1240.00
4748,-1200.00
4749,-1000.00
4750,-760.00
4751,-440.00
4752,40.00
4753,480.00
4754,960.00
4755,1320.00
4756,1680.00
4757,1960.00
4758,2080.00
4759,2080.00
4760,1960.00
4761,1640.00
4762,1320.00
4763,880.00
4764,400.00
4765,-80.00
4766,-520.00
4767,-960.00
4768,-1400.00
4769,-1720.00
4770,-1960.00
4771,-2040.00
4772,-1960.00
4773,-1760.00
4774,-1480.00
4775,-1160.00
4776,-680.00
4777,-200.00
4778,240.00
4779,760.00
4780,1240.00
4781,1600.00
4782,1960.00
4783,2080.00
4784,2120.00
4785,2040.00
4786,1760.00
4787,1360.00
4788,1120.00
4789,600.00
4790,120.00
4791,-400.00
4792,-920.00
4793,-1400.00
4794,-1760.00
4795,-2040.00
4796,-2120.00
4797,-2160.00
4798,-1960.00
4799,-1600.00
4800,-320.00
4801,200.00
4802,680.00
4803,1200.00
4804,1640.00
4805,1920.00
4806,2160.00
4807,2120.00
4808,2080.00
4809,1800.00
4810,1720.00
4811,1520.00
4812,1600.00
4813,1480.00
4814,1520.00
4815,1360.00
4816,1400.00
4817,1360.00
4818,1360.00
4819,1320.00
4820,1320.00
4821,1240.00
4822,1080.00
4823,800.00
4824,440.00
4825,0.00
4826,-360.00
4827,-920.00
4828,-1360.00
4829,-1680.00
4830,-1920.00
4831,-2080.00
4832,-2040.00
4833,-1840.00
4834,-1680.00
4835,-1200.00
4836,-840.00
4837,-400.00
4838,80.00
4839,560.00
4840,1040.00
4841,1360.00
4842,1720.00
4843,1960.00
4844,2040.00
4845,1960.00
4846,1840.00
4847,1400.00
4848,1200.00
4849,760.00
4850,280.00
4851,-280.00
4852,-680.00
4853,-1200.00
4854,-1600.00
4855,-1880.00
4856,-2040.00
4857,-2080.00
4858,-2000.00
4859,-1760.00
4860,-1440.00
4861,-1040.00
4862,-560.00
4863,-40.00
4864,400.00
4865,920.00
4866,1440.00
4867,1800.00
4868,2080.00
4869,2200.00
4870,2160.00
4871,1960.00
4872,1640.00
4873,1280.00
4874,920.00
4875,320.00
4876,-120.00
4877,-720.00
4878,-1200.00
4879,-1600.00
4880,-1920.00
4881,-2160.00
4882,-2080.00
4883,-2000.00
4884,-1800.00
4885,-1400.00
4886,-1080.00
4887,-560.00
4888,0.00
4889,480.00
4890,1000.00
4891,1440.00
4892,1800.00
4893,2080.00
4894,2160.00
4895,2120.00
4896,1960.00
4897,1600.00
4898,1320.00
4899,840.00
4900,320.00
4901,-200.00
4902,-680.00
4903,-1200.00
4904,-1640.00
4905,-1920.00
4906,-2120.00
4907,-2160.00
4908,-2000.00
4909,-1800.00
4910,-1680.00
4911,-1560.00
4912,-1480.00
4913,-1360.00
4914,-1360.00
4915,-1320.00
4916,-1320.00
4917,-1280.00
4918,-1280.00
4919,-1240.00
4920,-1240.00
4921,-1200.00
4922,-1080.00
4923,-880.00
4924,-520.00
4925,-80.00
4926,320.00
4927,800.00
4928,1280.00
4929,1640.00
4930,1920.00
4931,2040.00
4932,2000.00
4933,1880.00
4934,1640.00
4935,1480.00
4936,1480.00
4937,1360.00
4938,1400.00
4939,1360.00
4940,1440.00
4941,1360.00
4942,1480.00
4943,1360.00
4944,1440.00
4945,1400.00
4946,1400.00
4947,1200.00
4948,960.00
4949,560.00
4950,120.00
4951,-400.00
4952,-840.00
4953,-1320.00
4954,-1680.00
4955,-2000.00
4956,-2080.00
4957,-2080.00
4958,-1920.00
4959,-1640.00
4960,-1480.00
4961,-1360.00
4962,-1320.00
4963,-1240.00
4964,-1240.00
4965,-1240.00
4966,-1320.00
4967,-1320.00
4968,-1360.00
4969,-1360.00
4970,-1400.00
4971,-1360.00
4972,-1240.00
4973,-960.00
4974,-640.00
4975,-120.00
4976,280.00
4977,800.00
4978,1280.00
4979,1640.00
4980,1920.00
4981,2080.00
4982,2040.00
4983,1920.00
4984,1640.00
4985,1240.00
4986,960.00
4987,360.00
4988,-40.00
4989,-520.00
4990,-960.00
4991,-1400.00
4992,-1720.00
4993,-1920.00
4994,-2000.00
4995,-1880.00
4996,-1760.00
4997,-1400.00
4998,-1160.00
4999,-720.00
5000,-200.00
5001,280.00
5002,760.00
5003,1240.00
5004,1640.00
5005,1920.00
5006,2120.00
5007,2080.00
5008,2040.00
5009,1760.00
5010,1640.00
5011,1520.00
5012,1520.00
5013,1360.00
5014,1440.00
5015,1320.00
5016,1320.00
5017,1320.00
5018,1320.00
5019,1240.00
5020,1280.00
5021,1200.00
5022,1080.00
5023,880.00
5024,560.00
5025,40.00
5026,-360.00
5027,-840.00
5028,-1240.00
5029,-1600.00
5030,-1880.00
5031,-2000.00
5032,-2000.00
5033,-1840.00
5034,-1680.00
5035,-1440.00
5036,-1360.00
5037,-1320.00
5038,-1320.00
5039,-1280.00
5040,-1320.00
5041,-1320.00
5042,-1320.00
5043,-1320.00
5044,-1360.00
5045,-1360.00
5046,-1360.00
5047,-1200.00
5048,-960.00
5049,-560.00
5050,-160.00
5051,320.00
5052,800.00
5053,1240.00
5054,1640.00
5055,1920.00
5056,2080.00
5057,2040.00
5058,1920.00
5059,1520.00
5060,1280.00
5061,840.00
5062,360.00
5063,-120.00
5064,-600.00
5065,-1080.00
5066,-1480.00
5067,-1800.00
5068,-2000.00
5069,-2040.00
5070,-1960.00
5071,-1760.00
5072,-1440.00
5073,-1040.00
5074,-600.00
5075,-80.00
5076,360.00
5077,880.00
5078,1360.00
5079,1760.00
5080,2040.00
5081,2160.00
5082,2200.00
5083,2040.00
5084,1880.00
5085,1600.00
5086,1640.00
5087,1440.00
5088,1480.00
5089,1360.00
5090,1400.00
5091,1320.00
5092,1320.00
5093,1240.00
5094,1280.00
5095,1240.00
5096,1240.00
5097,1080.00
5098,880.00
5099,480.00
5100,80.00
5101,-400.00
5102,-760.00
5103,-1280.00
5104,-1640.00
5105,-1840.00
5106,-2000.00
5107,-2000.00
5108,-1840.00
5109,-1560.00
5110,-1240.00
5111,-880.00
5112,-360.00
5113,160.00
5114,640.00
5115,1080.00
5116,1520.00
5117,1800.00
5118,2040.00
5119,2080.00
5120,2040.00
5121,1760.00
5122,1480.00
5123,1080.00
5124,680.00
5125,80.00
5126,-320.00
5127,-880.00
5128,-1320.00
5129,-1720.00
5130,-2000.00
5131,-2160.00
5132,-2160.00
5133,-2080.00
5134,-1800.00
5135,-1400.00
5136,-1040.00
5137,-560.00
5138,0.00
5139,440.00
5140,1000.00
5141,1400.00
5142,1800.00
5143,2080.00
5144,2200.00
5145,2120.00
5146,2000.00
5147,1640.00
5148,1320.00
5149,840.00
5150,320.00
5151,-160.00
5152,-640.00
5153,-1160.00
5154,-1600.00
5155,-1840.00
5156,-2080.00
5157,-2160.00
5158,-2040.00
5159,-1760.00
5160,-1440.00
5161,-1000.00
5162,-520.00
5163,0.00
5164,440.00
5165,960.00
5166,1440.00
5167,1800.00
5168,2080.00
5169,2160.00
5170,2160.00
5171,1920.00
5172,1640.00
5173,1240.00
5174,920.00
5175,280.00
5176,-160.00
5177,-720.00
5178,-1200.00
5179,-1600.00
5180,-1920.00
5181,-2120.00
5182,-2080.00
5183,-2000.00
5184,-1720.00
5185,-1360.00
5186,-960.00
5187,-520.00
5188,40.00
5189,560.00
5190,1040.00
5191,1480.00
5192,1920.00
5193,2080.00
5194,2200.00
5195,2120.00
5196,1960.00
5197,1520.00
5198,1240.00
5199,760.00
5200,240.00
5201,-320.00
5202,-760.00
5203,-1320.00
5204,-1720.00
5205,-2040.00
5206,-2160.00
5207,-2160.00
5208,-2080.00
5209,-1760.00
5210,-1440.00
5211,-1000.00
5212,-480.00
5213,40.00
5214,560.00
5215,1080.00
5216,1560.00
5217,1920.00
5218,2160.00
5219,2200.00
5220,2200.00
5221,1920.00
5222,1640.00
5223,1200.00
5224,800.00
5225,160.00
5226,-280.00
5227,-840.00
5228,-1320.00
5229,-1720.00
5230,-2000.00
5231,-2200.00
5232,-2160.00
5233,-2040.00
5234,-1760.00
5235,-1360.00
5236,-960.00
5237,-480.00
5238,40.00
5239,560.00
5240,1080.00
5241,1480.00
5242,1920.00
5243,2120.00
5244,2240.00
5245,2120.00
5246,1960.00
5247,1520.00
5248,1280.00
5249,760.00
5250,240.00
5251,-320.00
5252,-760.00
5253,-1320.00
5254,-1680.00
5255,-2000.00
5256,-2160.00
5257,-2200.00
5258,-2080.00
5259,-1760.00
5260,-1400.00
5261,-1000.00
5262,-440.00
5263,40.00
5264,600.00
5265,1080.00
5266,1560.00
5267,1880.00
5268,2160.00
5269,2200.00
5270,2200.00
5271,1920.00
5272,1640.00
5273,1200.00
5274,800.00
5275,200.00
5276,-240.00
5277,-840.00
5278,-1320.00
5279,-1720.00
5280,-2000.00
5281,-2160.00
5282,-2160.00
5283,-2040.00
5284,-1840.00
5285,-1600.00
5286,-1560.00
5287,-1440.00
5288,-1360.00
5289,-1360.00
5290,-1360.00
5291,-1280.00
5292,-1280.00
5293,-1200.00
5294,-1200.00
5295,-1200.00
5296,-1200.00
5297,-1000.00
5298,-800.00
5299,-480.00
5300,-40.00
5301,360.00
5302,840.00
5303,1280.00
5304,1640.00
5305,1920.00
5306,2000.00
5307,2000.00
5308,1920.00
5309,1640.00
5310,1520.00
5311,1360.00
5312,1400.00
5313,1360.00
5314,1400.00
5315,1320.00
5316,1440.00
5317,1360.00
5318,1480.00
5319,1440.00
5320,1440.00
5321,1360.00
5322,1240.00
5323,920.00
5324,600.00
5325,40.00
5326,-360.00
5327,-880.00
5328,-1360.00
5329,-1720.00
5330,-2000.00
5331,-2160.00
5332,-2040.00
5333,-1880.00
5334,-1640.00
5335,-1200.00
5336,-760.00
5337,-320.00
5338,200.00
5339,640.00
5340,1160.00
5341,1520.00
5342,1840.00
5343,2040.00
5344,2080.00
5345,1960.00
5346,1800.00
5347,1360.00
5348,1080.00
5349,640.00
5350,160.00
5351,-400.00
5352,-800.00
5353,-1320.00
5354,-1720.00
5355,-2040.00
5356,-2120.00
5357,-2160.00
5358,-2000.00
5359,-1800.00
5360,-1680.00
5361,-1560.00
5362,-1480.00
5363,-1360.00
5364,-1360.00
5365,-1280.00
5366,-1320.00
5367,-1280.00
5368,-1240.00
5369,-1200.00
5370,-1200.00
5371,-1160.00
5372,-1040.00
5373,-840.00
5374,-480.00
5375,0.00
5376,360.00
5377,880.00
5378,1320.00
5379,1640.00
5380,1920.00
5381,2000.00
5382,2000.00
5383,1840.00
5384,1640.00
5385,1440.00
5386,1400.00
5387,1320.00
5388,1360.00
5389,1320.00
5390,1360.00
5391,1320.00
5392,1360.00
5393,1360.00
5394,1400.00
5395,1360.00
5396,1440.00
5397,1200.00
5398,1000.00
5399,640.00
5400,-720.00
5401,-1240.00
5402,-1640.00
5403,-1840.00
5404,-2000.00
5405,-2000.00
5406,-1920.00
5407,-1560.00
5408,-1240.00
5409,-880.00
5410,-320.00
5411,160.00
5412,640.00
5413,1160.00
5414,1560.00
5415,1800.00
5416,2040.00
5417,2080.00
5418,2000.00
5419,1680.00
5420,1480.00
5421,1040.00
5422,640.00
5423,40.00
5424,-360.00
5425,-920.00
5426,-1360.00
5427,-1720.00
5428,-2000.00
5429,-2160.00
5430,-2160.00
5431,-2040.00
5432,-1760.00
5433,-1360.00
5434,-960.00
5435,-480.00
5436,40.00
5437,480.00
5438,1080.00
5439,1480.00
5440,1920.00
5441,2120.00
5442,2240.00
5443,2160.00
5444,2000.00
5445,1560.00
5446,1280.00
5447,760.00
5448,240.00
5449,-280.00
5450,-720.00
5451,-1280.00
5452,-1680.00
5453,-2000.00
5454,-2160.00
5455,-2200.00
5456,-2080.00
5457,-1840.00
5458,-1720.00
5459,-1600.00
5460,-1520.00
5461,-1400.00
5462,-1400.00
5463,-1360.00
5464,-1360.00
5465,-1320.00
5466,-1320.00
5467,-1280.00
5468,-1240.00
5469,-1200.00
5470,-1040.00
5471,-840.00
5472,-360.00
5473,40.00
5474,480.00
5475,920.00
5476,1360.00
5477,1760.00
5478,2000.00
5479,2080.00
5480,2080.00
5481,1920.00
5482,1680.00
5483,1480.00
5484,1480.00
5485,1360.00
5486,1400.00
5487,1320.00
5488,1400.00
5489,1360.00
5490,1440.00
5491,1360.00
5492,1440.00
5493,1360.00
5494,1400.00
5495,1200.00
5496,960.00
5497,560.00
5498,80.00
5499,-400.00
5500,-840.00
5501,-1320.00
5502,-1680.00
5503,-2000.00
5504,-2080.00
5505,-2080.00
5506,-1920.00
5507,-1560.00
5508,-1240.00
5509,-880.00
5510,-320.00
5511,200.00
5512,640.00
5513,1160.00
5514,1560.00
5515,1800.00
5516,2040.00
5517,2040.00
5518,2000.00
5519,1720.00
5520,1480.00
5521,1040.00
5522,640.00
5523,40.00
5524,-320.00
5525,-880.00
5526,-1320.00
5527,-1720.00
5528,-2000.00
5529,-2200.00
5530,-2160.00
5531,-2040.00
5532,-1760.00
5533,-1360.00
5534,-960.00
5535,-520.00
5536,40.00
5537,520.00
5538,1080.00
5539,1480.00
5540,1920.00
5541,2120.00
5542,2280.00
5543,2200.00
5544,1960.00
5545,1560.00
5546,1280.00
5547,760.00
5548,240.00
5549,-280.00
5550,-720.00
5551,-1280.00
5552,-1680.00
5553,-2000.00
5554,-2160.00
5555,-2200.00
5556,-2080.00
5557,-1760.00
5558,-1440.00
5559,-1000.00
5560,-520.00
5561,0.00
5562,520.00
5563,1040.00
5564,1480.00
5565,1800.00
5566,2080.00
5567,2200.00
5568,2160.00
5569,1920.00
5570,1640.00
5571,1240.00
5572,920.00
5573,320.00
5574,-160.00
5575,-720.00
5576,-1200.00
5577,-1600.00
5578,-1920.00
5579,-2120.00
5580,-2080.00
5581,-2000.00
5582,-1720.00
5583,-1360.00
5584,-960.00
5585,-520.00
5586,40.00
5587,560.00
5588,1080.00
5589,1520.00
5590,1920.00
5591,2120.00
5592,2240.00
5593,2120.00
5594,1960.00
5595,1520.00
5596,1240.00
5597,760.00
5598,240.00
5599,-320.00
5600,-760.00
5601,-1320.00
5602,-1680.00
5603,-2000.00
5604,-2160.00
5605,-2200.00
5606,-2040.00
5607,-1800.00
5608,-1680.00
5609,-1560.00
5610,-1480.00
5611,-1360.00
5612,-1360.00
5613,-1280.00
5614,-1320.00
5615,-1280.00
5616,-1240.00
5617,-1160.00
5618,-1240.00
5619,-1200.00
5620,-1080.00
5621,-840.00
5622,-480.00
5623,-40.00
5624,360.00
5625,880.00
5626,1320.00
5627,1640.00
5628,1920.00
5629,2040.00
5630,2000.00
5631,1840.00
5632,1640.00
5633,1240.00
5634,960.00
5635,400.00
5636,0.00
5637,-520.00
5638,-920.00
5639,-1400.00
5640,-1720.00
5641,-1960.00
5642,-2000.00
5643,-1880.00
5644,-1760.00
5645,-1440.00
5646,-1160.00
5647,-760.00
5648,-200.00
5649,280.00
5650,760.00
5651,1240.00
5652,1640.00
5653,1920.00
5654,2120.00
5655,2120.00
5656,2040.00
5657,1800.00
5658,1680.00
5659,1600.00
5660,1600.00
5661,1480.00
5662,1520.00
5663,1400.00
5664,1440.00
5665,1360.00
5666,1360.00
5667,1320.00
5668,1320.00
5669,1200.00
5670,1080.00
5671,800.00
5672,400.00
5673,0.00
5674,-400.00
5675,-920.00
5676,-1360.00
5677,-1720.00
5678,-1960.00
5679,-2080.00
5680,-2040.00
5681,-1840.00
5682,-1640.00
5683,-1200.00
5684,-760.00
5685,-320.00
5686,200.00
5687,640.00
5688,1120.00
5689,1480.00
5690,1840.00
5691,2040.00
5692,2080.00
5693,2000.00
5694,1840.00
5695,1440.00
5696,1120.00
5697,640.00
5698,160.00
5699,-400.00
5700,-760.00
5701,-1320.00
5702,-1720.00
5703,-2040.00
5704,-2160.00
5705,-2160.00
5706,-2040.00
5707,-1800.00
5708,-1480.00
5709,-1000.00
5710,-520.00
5711,0.00
5712,480.00
5713,1000.00
5714,1480.00
5715,1800.00
5716,2120.00
5717,2200.00
5718,2200.00
5719,1960.00
5720,1640.00
5721,1320.00
5722,920.00
5723,320.00
5724,-120.00
5725,-720.00
5726,-1200.00
5727,-1600.00
5728,-1920.00
5729,-2080.00
5730,-2080.00
5731,-2000.00
5732,-1800.00
5733,-1400.00
5734,-1000.00
5735,-560.00
5736,0.00
5737,480.00
5738,1000.00
5739,1440.00
5740,1840.00
5741,2080.00
5742,2200.00
5743,2120.00
5744,1960.00
5745,1600.00
5746,1320.00
5747,800.00
5748,320.00
5749,-200.00
5750,-680.00
5751,-1200.00
5752,-1640.00
5753,-1960.00
5754,-2120.00
5755,-2160.00
5756,-2040.00
5757,-1720.00
5758,-1400.00
5759,-1000.00
5760,-440.00
5761,40.00
5762,560.00
5763,1040.00
5764,1560.00
5765,1920.00
5766,2120.00
5767,2200.00
5768,2160.00
5769,1920.00
5770,1640.00
5771,1200.00
5772,800.00
5773,160.00
5774,-280.00
5775,-840.00
5776,-1320.00
5777,-1720.00
5778,-2000.00
5779,-2200.00
5780,-2200.00
5781,-2040.00
5782,-1760.00
5783,-1360.00
5784,-960.00
5785,-520.00
5786,40.00
5787,560.00
5788,1080.00
5789,1480.00
5790,1920.00
5791,2120.00
5792,2240.00
5793,2120.00
5794,1960.00
5795,1560.00
5796,1280.00
5797,760.00
5798,240.00
5799,-320.00
5800,-760.00
5801,-1320.00
5802,-1680.00
5803,-2000.00
5804,-2200.00
5805,-2200.00
5806,-2080.00
5807,-1760.00
5808,-1400.00
5809,-1000.00
5810,-440.00
5811,40.00
5812,600.00
5813,1080.00
5814,1560.00
5815,1920.00
5816,2160.00
5817,2200.00
5818,2200.00
5819,1920.00
5820,1600.00
5821,1200.00
5822,800.00
5823,160.00
5824,-280.00
5825,-840.00
5826,-1320.00
5827,-1720.00
5828,-2000.00
5829,-2200.00
5830,-2160.00
5831,-2040.00
5832,-1760.00
5833,-1360.00
5834,-960.00
5835,-520.00
5836,40.00
5837,560.00
5838,1080.00
5839,1480.00
5840,1920.00
5841,2120.00
5842,2240.00
5843,2120.00
5844,1960.00
5845,1560.00
5846,1280.00
5847,760.00
5848,240.00
5849,-320.00
5850,-760.00
5851,-1320.00
5852,-1680.00
5853,-2000.00
5854,-2200.00
5855,-2200.00
5856,-2080.00
5857,-1760.00
5858,-1400.00
5859,-1000.00
5860,-440.00
5861,40.00
5862,560.00
5863,1080.00
5864,1560.00
5865,1920.00
5866,2160.00
5867,2200.00
5868,2200.00
5869,1920.00
5870,1640.00
5871,1200.00
5872,800.00
5873,200.00
5874,-280.00
5875,-840.00
5876,-1320.00
5877,-1720.00
5878,-2000.00
5879,-2200.00
5880,-2160.00
5881,-2040.00
5882,-1800.00
5883,-1360.00
5884,-960.00
5885,-520.00
5886,80.00
5887,560.00
5888,1080.00
5889,1480.00
5890,1920.00
5891,2120.00
5892,2240.00
5893,2120.00
5894,1960.00
5895,1520.00
5896,1240.00
5897,760.00
5898,240.00
5899,-320.00
5900,-760.00
5901,-1320.00
5902,-1680.00
5903,-2000.00
5904,-2200.00
5905,-2200.00
5906,-2080.00
5907,-1760.00
5908,-1440.00
5909,-1000.00
5910,-440.00
5911,40.00
5912,560.00
5913,1080.00
5914,1560.00
5915,1920.00
5916,2160.00
5917,2200.00
5918,2200.00
5919,1920.00
5920,1640.00
5921,1200.00
5922,800.00
5923,200.00
5924,-240.00
5925,-840.00
5926,-1320.00
5927,-1720.00
5928,-2000.00
5929,-2200.00
5930,-2200.00
5931,-2080.00
5932,-1760.00
5933,-1360.00
5934,-960.00
5935,-520.00
5936,40.00
5937,560.00
5938,1080.00
5939,1480.00
5940,1920.00
5941,2120.00
5942,2240.00
5943,2120.00
5944,1960.00
5945,1600.00
5946,1280.00
5947,760.00
5948,240.00
5949,-320.00
5950,-760.00
5951,-1320.00
5952,-1680.00
5953,-2000.00
5954,-2200.00
5955,-2200.00
5956,-2040.00
5957,-1760.00
5958,-1440.00
5959,-1000.00
5960,-480.00
5961,40.00
5962,600.00
5963,1080.00
5964,1560.00
5965,1920.00
5966,2160.00
5967,2200.00
5968,2200.00
5969,1920.00
5970,1640.00
5971,1240.00
5972,800.00
5973,200.00
5974,-280.00
5975,-840.00
5976,-1320.00
5977,-1720.00
5978,-2000.00
5979,-2200.00
5980,-2200.00
5981,-2080.00
5982,-1840.00
5983,-1600.00
5984,-1560.00
5985,-1440.00
5986,-1360.00
5987,-1320.00
5988,-1320.00
5989,-1280.00
5990,-1280.00
5991,-1200.00
5992,-1240.00
5993,-1200.00
5994,-1240.00
5995,-1040.00
5996,-800.00
5997,-520.00
5998,-40.00
5999,360.00
6000,1640.00
6001,1920.00
6002,2000.00
6003,2040.00
6004,1920.00
6005,1640.00
6006,1560.00
6007,1360.00
6008,1400.00
6009,1360.00
6010,1400.00
6011,1320.00
6012,1480.00
6013,1360.00
6014,1480.00
6015,1440.00
6016,1440.00
6017,1360.00
6018,1240.00
6019,920.00
6020,560.00
6021,40.00
6022,-360.00
6023,-880.00
6024,-1360.00
6025,-1720.00
6026,-2000.00
6027,-2120.00
6028,-2080.00
6029,-1880.00
6030,-1640.00
6031,-1200.00
6032,-760.00
6033,-320.00
6034,200.00
6035,640.00
6036,1120.00
6037,1480.00
6038,1840.00
6039,2040.00
6040,2080.00
6041,1960.00
6042,1800.00
6043,1400.00
6044,1080.00
6045,640.00
6046,160.00
6047,-400.00
6048,-800.00
6049,-1320.00
6050,-1720.00
6051,-2000.00
6052,-2160.00
6053,-2160.00
6054,-2040.00
6055,-1720.00
6056,-1400.00
6057,-1040.00
6058,-440.00
6059,0.00
6060,560.00
6061,1080.00
6062,1560.00
6063,1920.00
6064,2160.00
6065,2200.00
6066,2200.00
6067,1920.00
6068,1640.00
6069,1240.00
6070,840.00
6071,200.00
6072,-240.00
6073,-840.00
6074,-1280.00
6075,-1720.00
6076,-2000.00
6077,-2200.00
6078,-2200.00
6079,-2080.00
6080,-1800.00
6081,-1400.00
6082,-1000.00
6083,-560.00
6084,0.00
6085,480.00
6086,1000.00
6087,1440.00
6088,1800.00
6089,2080.00
6090,2200.00
6091,2120.00
6092,1960.00
6093,1560.00
6094,1320.00
6095,800.00
6096,320.00
6097,-160.00
6098,-680.00
6099,-1200.00
6100,-1640.00
6101,-1880.00
6102,-2080.00
6103,-2160.00
6104,-2040.00
6105,-1720.00
6106,-1400.00
6107,-1000.00
6108,-480.00
6109,0.00
6110,560.00
6111,1040.00
6112,1560.00
6113,1880.00
6114,2120.00
6115,2200.00
6116,2200.00
6117,1920.00
6118,1640.00
6119,1200.00
6120,800.00
6121,160.00
6122,-280.00
6123,-840.00
6124,-1320.00
6125,-1720.00
6126,-2000.00
6127,-2200.00
6128,-2160.00
6129,-2040.00
6130,-1760.00
6131,-1360.00
6132,-960.00
6133,-520.00
6134,80.00
6135,560.00
6136,1080.00
6137,1480.00
6138,1920.00
6139,2120.00
6140,2240.00
6141,2120.00
6142,1960.00
6143,1520.00
6144,1240.00
6145,760.00
6146,240.00
6147,-280.00
6148,-760.00
6149,-1320.00
6150,-1680.00
6151,-2000.00
6152,-2200.00
6153,-2200.00
6154,-2080.00
6155,-1760.00
6156,-1400.00
6157,-1000.00
6158,-440.00
6159,40.00
6160,560.00
6161,1080.00
6162,1560.00
6163,1920.00
6164,2160.00
6165,2200.00
6166,2200.00
6167,1920.00
6168,1640.00
6169,1200.00
6170,800.00
6171,200.00
6172,-280.00
6173,-840.00
6174,-1320.00
6175,-1720.00
6176,-2000.00
6177,-2160.00
6178,-2160.00
6179,-2040.00
6180,-1760.00
6181,-1360.00
6182,-960.00
6183,-520.00
6184,40.00
6185,560.00
6186,1080.00
6187,1480.00
6188,1920.00
6189,2120.00
6190,2240.00
6191,2120.00
6192,1960.00
6193,1520.00
6194,1280.00
6195,760.00
6196,240.00
6197,-320.00
6198,-760.00
6199,-1320.00
6200,-1680.00
6201,-2000.00
6202,-2160.00
6203,-2200.00
6204,-2080.00
6205,-1760.00
6206,-1400.00
6207,-1000.00
6208,-440.00
6209,40.00
6210,560.00
6211,1080.00
6212,1560.00
6213,1920.00
6214,2160.00
6215,2200.00
6216,2200.00
6217,1920.00
6218,1640.00
6219,1200.00
6220,800.00
6221,160.00
6222,-280.00
6223,-840.00
6224,-1320.00
6225,-1720.00
6226,-2000.00
6227,-2200.00
6228,-2160.00
6229,-2040.00
6230,-1760.00
6231,-1360.00
6232,-960.00
6233,-520.00
6234,40.00
6235,560.00
6236,1120.00
6237,1480.00
6238,1920.00
6239,2120.00
6240,2240.00
6241,2120.00
6242,1960.00
6243,1560.00
6244,1240.00
6245,800.00
6246,240.00
6247,-320.00
6248,-760.00
6249,-1320.00
6250,-1680.00
6251,-2000.00
6252,-2200.00
6253,-2200.00
6254,-2080.00
6255,-1800.00
6256,-1680.00
6257,-1560.00
6258,-1440.00
6259,-1360.00
6260,-1360.00
6261,-1280.00
6262,-1280.00
6263,-1280.00
6264,-1280.00
6265,-1200.00
6266,-1240.00
6267,-1200.00
6268,-1080.00
6269,-880.00
6270,-480.00
6271,-40.00
6272,360.00
6273,880.00
6274,1280.00
6275,1640.00
6276,1920.00
6277,2040.00
6278,2000.00
6279,1800.00
6280,1640.00
6281,1480.00
6282,1480.00
6283,1360.00
6284,1400.00
6285,1360.00
6286,1440.00
6287,1360.00
6288,1480.00
6289,1360.00
6290,1480.00
6291,1400.00
6292,1400.00
6293,1240.00
6294,960.00
6295,560.00
6296,80.00
6297,-400.00
6298,-840.00
6299,-1320.00
6300,-1680.00
6301,-2000.00
6302,-2080.00
6303,-2040.00
6304,-1960.00
6305,-1600.00
6306,-1240.00
6307,-880.00
6308,-320.00
6309,200.00
6310,640.00
6311,1160.00
6312,1560.00
6313,1800.00
6314,2040.00
6315,2080.00
6316,2000.00
6317,1760.00
6318,1480.00
6319,1040.00
6320,640.00
6321,40.00
6322,-360.00
6323,-880.00
6324,-1360.00
6325,-1720.00
6326,-2000.00
6327,-2160.00
6328,-2160.00
6329,-2040.00
6330,-1760.00
6331,-1360.00
6332,-960.00
6333,-480.00
6334,40.00
6335,560.00
6336,1080.00
6337,1480.00
6338,1920.00
6339,2120.00
6340,2240.00
6341,2200.00
6342,1960.00
6343,1640.00
6344,1280.00
6345,800.00
6346,280.00
6347,-280.00
6348,-720.00
6349,-1280.00
6350,-1680.00
6351,-2000.00
6352,-2200.00
6353,-2200.00
6354,-2080.00
6355,-1800.00
6356,-1480.00
6357,-1040.00
6358,-520.00
6359,0.00
6360,520.00
6361,1040.00
6362,1480.00
6363,1800.00
6364,2120.00
6365,2200.00
6366,2160.00
6367,1960.00
6368,1640.00
6369,1240.00
6370,920.00
6371,320.00
6372,-160.00
6373,-720.00
6374,-1200.00
6375,-1600.00
6376,-1920.00
6377,-2120.00
6378,-2080.00
6379,-2000.00
6380,-1760.00
6381,-1360.00
6382,-960.00
6383,-520.00
6384,40.00
6385,560.00
6386,1080.00
6387,1520.00
6388,1920.00
6389,2120.00
6390,2240.00
6391,2120.00
6392,1960.00
6393,1520.00
6394,1240.00
6395,760.00
6396,240.00
6397,-320.00
6398,-760.00
6399,-1320.00
6400,-1720.00
6401,-2000.00
6402,-2200.00
6403,-2200.00
6404,-2040.00
6405,-1760.00
6406,-1400.00
6407,-1000.00
6408,-400.00
6409,40.00
6410,600.00
6411,1080.00
6412,1560.00
6413,1920.00
6414,2160.00
6415,2200.00
6416,2200.00
6417,1920.00
6418,1640.00
6419,1200.00
6420,800.00
6421,200.00
6422,-280.00
6423,-880.00
6424,-1320.00
6425,-1720.00
6426,-2000.00
6427,-2160.00
6428,-2160.00
6429,-2040.00
6430,-1760.00
6431,-1360.00
6432,-960.00
6433,-480.00
6434,80.00
6435,560.00
6436,1080.00
6437,1520.00
6438,1920.00
6439,2120.00
6440,2240.00
6441,2120.00
6442,1960.00
6443,1520.00
6444,1240.00
6445,760.00
6446,240.00
6447,-320.00
6448,-760.00
6449,-1320.00
6450,-1680.00
6451,-2000.00
6452,-2160.00
6453,-2200.00
6454,-2040.00
6455,-1760.00
6456,-1400.00
6457,-1000.00
6458,-440.00
6459,40.00
6460,600.00
6461,1080.00
6462,1560.00
6463,1880.00
6464,2160.00
6465,2200.00
6466,2200.00
6467,1920.00
6468,1640.00
6469,1200.00
6470,800.00
6471,160.00
6472,-280.00
6473,-840.00
6474,-1320.00
6475,-1720.00
6476,-2000.00
6477,-2160.00
6478,-2160.00
6479,-2040.00
6480,-1760.00
6481,-1360.00
6482,-960.00
6483,-480.00
6484,80.00
6485,560.00
6486,1080.00
6487,1520.00
6488,1920.00
6489,2120.00
6490,2240.00
6491,2120.00
6492,1960.00
6493,1520.00
6494,1240.00
6495,800.00
6496,240.00
6497,-320.00
6498,-760.00
6499,-1320.00
6500,-1680.00
6501,-2000.00
6502,-2200.00
6503,-2200.00
6504,-2040.00
6505,-1760.00
6506,-1400.00
6507,-1000.00
6508,-440.00
6509,40.00
6510,600.00
6511,1120.00
6512,1560.00
6513,1880.00
6514,2160.00
6515,2200.00
6516,2200.00
6517,1920.00
6518,1640.00
6519,1200.00
6520,800.00
6521,160.00
6522,-280.00
6523,-840.00
6524,-1320.00
6525,-1720.00
6526,-2000.00
6527,-2200.00
6528,-2200.00
6529,-2040.00
6530,-1760.00
6531,-1360.00
6532,-960.00
6533,-520.00
6534,40.00
6535,560.00
6536,1120.00
6537,1480.00
6538,1920.00
6539,2120.00
6540,2240.00
6541,2160.00
6542,1960.00
6543,1600.00
6544,1240.00
6545,760.00
6546,240.00
6547,-320.00
6548,-760.00
6549,-1320.00
6550,-1720.00
6551,-2000.00
6552,-2200.00
6553,-2200.00
6554,-2040.00
6555,-1760.00
6556,-1440.00
6557,-1000.00
6558,-440.00
6559,40.00
6560,600.00
6561,1080.00
6562,1560.00
6563,1920.00
6564,2160.00
6565,2200.00
6566,2200.00
6567,1920.00
6568,1640.00
6569,1200.00
6570,800.00
6571,160.00
6572,-280.00
6573,-840.00
6574,-1320.00
6575,-1720.00
6576,-2000.00
6577,-2200.00
6578,-2160.00
6579,-2040.00
6580,-1760.00
6581,-1360.00
6582,-960.00
6583,-480.00
6584,40.00
6585,560.00
6586,1080.00
6587,1520.00
6588,1920.00
6589,2120.00
6590,2240.00
6591,2120.00
6592,1960.00
6593,1520.00
6594,1240.00
6595,760.00
6596,240.00
6597,-320.00
6598,-760.00
6599,-1320.00
6600,-2200.00
6601,-2200.00
6602,-2040.00
6603,-1800.00
6604,-1680.00
6605,-1560.00
6606,-1440.00
6607,-1360.00
6608,-1360.00
6609,-1280.00
6610,-1280.00
6611,-1240.00
6612,-1240.00
6613,-1200.00
6614,-1240.00
6615,-1200.00
6616,-1080.00
6617,-880.00
6618,-480.00
6619,0.00
6620,360.00
6621,840.00
6622,1320.00
6623,1640.00
6624,1920.00
6625,2040.00
6626,2000.00
6627,1840.00
6628,1640.00
6629,1240.00
6630,920.00
6631,360.00
6632,-40.00
6633,-520.00
6634,-960.00
6635,-1400.00
6636,-1720.00
6637,-1960.00
6638,-2000.00
6639,-1880.00
6640,-1760.00
6641,-1400.00
6642,-1160.00
6643,-720.00
6644,-200.00
6645,280.00
6646,760.00
6647,1240.00
6648,1640.00
6649,1920.00
6650,2120.00
6651,2080.00
6652,2040.00
6653,1760.00
6654,1680.00
6655,1560.00
6656,1600.00
6657,1480.00
6658,1520.00
6659,1400.00
6660,1440.00
6661,1360.00
6662,1360.00
6663,1320.00
6664,1320.00
6665,1200.00
6666,1080.00
6667,800.00
6668,400.00
6669,0.00
6670,-440.00
6671,-920.00
6672,-1360.00
6673,-1720.00
6674,-1960.00
6675,-2080.00
6676,-2040.00
6677,-1840.00
6678,-1600.00
6679,-1200.00
6680,-760.00
6681,-320.00
6682,200.00
6683,640.00
6684,1120.00
6685,1480.00
6686,1840.00
6687,2040.00
6688,2080.00
6689,1960.00
6690,1840.00
6691,1360.00
6692,1080.00
6693,640.00
6694,160.00
6695,-400.00
6696,-800.00
6697,-1320.00
6698,-1720.00
6699,-2000.00
6700,-2160.00
6701,-2160.00
6702,-2040.00
6703,-1760.00
6704,-1440.00
6705,-1000.00
6706,-520.00
6707,0.00
6708,480.00
6709,1040.00
6710,1480.00
6711,1800.00
6712,2120.00
6713,2200.00
6714,2160.00
6715,1960.00
6716,1640.00
6717,1320.00
6718,920.00
6719,280.00
6720,-160.00
6721,-720.00
6722,-1200.00
6723,-1600.00
6724,-1920.00
6725,-2120.00
6726,-2120.00
6727,-2000.00
6728,-1760.00
6729,-1360.00
6730,-1000.00
6731,-560.00
6732,0.00
6733,480.00
6734,1000.00
6735,1440.00
6736,1840.00
6737,2080.00
6738,2200.00
6739,2120.00
6740,1960.00
6741,1560.00
6742,1320.00
6743,800.00
6744,320.00
6745,-240.00
6746,-680.00
6747,-1200.00
6748,-1640.00
6749,-1920.00
6750,-2120.00
6751,-2160.00
6752,-2040.00
6753,-1720.00
6754,-1360.00
6755,-1000.00
6756,-440.00
6757,40.00
6758,560.00
6759,1080.00
6760,1560.00
6761,1920.00
6762,2120.00
6763,2200.00
6764,2200.00
6765,1920.00
6766,1600.00
6767,1200.00
6768,800.00
6769,160.00
6770,-280.00
6771,-840.00
6772,-1320.00
6773,-1720.00
6774,-2000.00
6775,-2200.00
6776,-2160.00
6777,-2040.00
6778,-1760.00
6779,-1360.00
6780,-960.00
6781,-520.00
6782,80.00
6783,600.00
6784,1080.00
6785,1520.00
6786,1920.00
6787,2120.00
6788,2240.00
6789,2120.00
6790,1960.00
6791,1520.00
6792,1240.00
6793,760.00
6794,240.00
6795,-320.00
6796,-760.00
6797,-1320.00
6798,-1720.00
6799,-2000.00
6800,-2160.00
6801,-2200.00
6802,-2040.00
6803,-1760.00
6804,-1400.00
6805,-1000.00
6806,-440.00
6807,40.00
6808,600.00
6809,1080.00
6810,1560.00
6811,1880.00
6812,2160.00
6813,2200.00
6814,2200.00
6815,1920.00
6816,1640.00
6817,1200.00
6818,800.00
6819,160.00
6820,-280.00
6821,-840.00
6822,-1320.00
6823,-1720.00
6824,-2000.00
6825,-2160.00
6826,-2160.00
6827,-2040.00
6828,-1800.00
6829,-1600.00
6830,-1560.00
6831,-1440.00
6832,-1360.00
6833,-1320.00
6834,-1320.00
6835,-1280.00
6836,-1280.00
6837,-1200.00
6838,-1240.00
6839,-1200.00
6840,-1240.00
6841,-1040.00
6842,-800.00
6843,-480.00
6844,-40.00
6845,360.00
6846,840.00
6847,1320.00
6848,1640.00
6849,1920.00
6850,2000.00
6851,1960.00
6852,1920.00
6853,1640.00
6854,1520.00
6855,1360.00
6856,1400.00
6857,1360.00
6858,1400.00
6859,1360.00
6860,1480.00
6861,1360.00
6862,1480.00
6863,1440.00
6864,1440.00
6865,1360.00
6866,1240.00
6867,920.00
6868,560.00
6869,40.00
6870,-360.00
6871,-880.00
6872,-1360.00
6873,-1720.00
6874,-2000.00
6875,-2120.00
6876,-2080.00
6877,-1920.00
6878,-1640.00
6879,-1200.00
6880,-760.00
6881,-320.00
6882,200.00
6883,640.00
6884,1200.00
6885,1480.00
6886,1880.00
6887,2040.00
6888,2080.00
6889,1960.00
6890,1800.00
6891,1360.00
6892,1080.00
6893,640.00
6894,120.00
6895,-400.00
6896,-800.00
6897,-1320.00
6898,-1720.00
6899,-2040.00
6900,-2120.00
6901,-2160.00
6902,-2040.00
6903,-1720.00
6904,-1400.00
6905,-1000.00
6906,-440.00
6907,40.00
6908,560.00
6909,1080.00
6910,1560.00
6911,1920.00
6912,2160.00
6913,2200.00
6914,2200.00
6915,1920.00
6916,1640.00
6917,1240.00
6918,800.00
6919,200.00
6920,-240.00
6921,-840.00
6922,-1320.00
6923,-1720.00
6924,-2000.00
6925,-2200.00
6926,-2200.00
6927,-2080.00
6928,-1800.00
6929,-1400.00
6930,-1000.00
6931,-520.00
6932,0.00
6933,480.00
6934,1040.00
6935,1440.00
6936,1840.00
6937,2080.00
6938,2200.00
6939,2080.00
6940,1960.00
6941,1600.00
6942,1320.00
6943,840.00
6944,320.00
6945,-200.00
6946,-680.00
6947,-1200.00
6948,-1640.00
6949,-1960.00
6950,-2120.00
6951,-2160.00
6952,-2040.00
6953,-1720.00
6954,-1400.00
6955,-1000.00
6956,-480.00
6957,40.00
6958,600.00
6959,1080.00
6960,1560.00
6961,1920.00
6962,2160.00
6963,2200.00
6964,2200.00
6965,1920.00
6966,1600.00
6967,1200.00
6968,760.00
6969,160.00
6970,-320.00
6971,-880.00
6972,-1320.00
6973,-1720.00
6974,-2000.00
6975,-2200.00
6976,-2200.00
6977,-2040.00
6978,-1760.00
6979,-1360.00
6980,-960.00
6981,-480.00
6982,80.00
6983,560.00
6984,1120.00
6985,1520.00
6986,1920.00
6987,2120.00
6988,2240.00
6989,2120.00
6990,1960.00
6991,1560.00
6992,1240.00
6993,760.00
6994,240.00
6995,-320.00
6996,-760.00
6997,-1320.00
6998,-1680.00
6999,-2000.00
7000,-2200.00
7001,-2200.00
7002,-2040.00
7003,-1760.00
7004,-1400.00
7005,-1000.00
7006,-440.00
7007,40.00
7008,600.00
7009,1160.00
7010,1560.00
7011,1920.00
7012,2160.00
7013,2200.00
7014,2200.00
7015,1920.00
7016,1640.00
7017,1200.00
7018,800.00
7019,160.00
7020,-280.00
7021,-880.00
7022,-1320.00
7023,-1720.00
7024,-2000.00
7025,-2160.00
7026,-2160.00
7027,-2040.00
7028,-1760.00
7029,-1360.00
7030,-960.00
7031,-480.00
7032,80.00
7033,560.00
7034,1080.00
7035,1520.00
7036,1920.00
7037,2120.00
7038,2240.00
7039,2120.00
7040,1960.00
7041,1520.00
7042,1240.00
7043,760.00
7044,240.00
7045,-320.00
7046,-760.00
7047,-1320.00
7048,-1720.00
7049,-2040.00
7050,-2160.00
7051,-2160.00
7052,-2080.00
7053,-1760.00
7054,-1400.00
7055,-1000.00
7056,-440.00
7057,40.00
7058,600.00
7059,1160.00
7060,1560.00
7061,1920.00
7062,2160.00
7063,2200.00
7064,2200.00
7065,1920.00
7066,1640.00
7067,1200.00
7068,800.00
7069,200.00
7070,-240.00
7071,-880.00
7072,-1320.00
7073,-1720.00
7074,-2000.00
7075,-2200.00
7076,-2160.00
7077,-2040.00
7078,-1760.00
7079,-1360.00
7080,-960.00
7081,-520.00
7082,80.00
7083,560.00
7084,1080.00
7085,1480.00
7086,1920.00
7087,2120.00
7088,2240.00
7089,2120.00
7090,1960.00
7091,1520.00
7092,1240.00
7093,760.00
7094,240.00
7095,-320.00
7096,-760.00
7097,-1320.00
7098,-1720.00
7099,-2040.00
7100,-2200.00
7101,-2200.00
7102,-2080.00
7103,-1760.00
7104,-1400.00
7105,-1000.00
7106,-440.00
7107,40.00
7108,600.00
7109,1080.00
7110,1560.00
7111,1920.00
7112,2160.00
7113,2200.00
7114,2200.00
7115,1920.00
7116,1640.00
7117,1200.00
7118,800.00
7119,160.00
7120,-280.00
7121,-840.00
7122,-1320.00
7123,-1720.00
7124,-2000.00
7125,-2200.00
7126,-2200.00
7127,-2040.00
7128,-1760.00
7129,-1360.00
7130,-960.00
7131,-520.00
7132,80.00
7133,600.00
7134,1120.00
7135,1480.00
7136,1920.00
7137,2120.00
7138,2240.00
7139,2120.00
7140,1960.00
7141,1520.00
7142,1240.00
7143,760.00
7144,240.00
7145,-320.00
7146,-760.00
7147,-1320.00
7148,-1680.00
7149,-2000.00
7150,-2200.00
7151,-2200.00
7152,-2080.00
7153,-1760.00
7154,-1440.00
7155,-1000.00
7156,-440.00
7157,40.00
7158,600.00
7159,1080.00
7160,1560.00
7161,1920.00
7162,2160.00
7163,2200.00
7164,2200.00
7165,1920.00
7166,1640.00
7167,1200.00
7168,800.00
7169,160.00
7170,-280.00
7171,-880.00
7172,-1320.00
7173,-1720.00
7174,-2000.00
7175,-2200.00
7176,-2160.00
7177,-2040.00
7178,-1760.00
7179,-1360.00
7180,-960.00
7181,-480.00
7182,80.00
7183,560.00
7184,1120.00
7185,1520.00
7186,1920.00
7187,2120.00
7188,2240.00
7189,2120.00
7190,1960.00
7191,1520.00
7192,1240.00
7193,760.00
7194,240.00
7195,-320.00
7196,-760.00
7197,-1320.00
7198,-1680.00
7199,-2040.00
7200,-2080.00
7201,-1800.00
7202,-1680.00
7203,-1560.00
7204,-1440.00
7205,-1360.00
7206,-1360.00
7207,-1280.00
7208,-1280.00
7209,-1240.00
7210,-1240.00
7211,-1200.00
7212,-1240.00
7213,-1200.00
7214,-1080.00
7215,-880.00
7216,-480.00
7217,0.00
7218,360.00
7219,880.00
7220,1320.00
7221,1640.00
7222,1920.00
7223,2040.00
7224,2000.00
7225,1880.00
7226,1640.00
7227,1480.00
7228,1480.00
7229,1360.00
7230,1400.00
7231,1360.00
7232,1440.00
7233,1360.00
7234,1480.00
7235,1400.00
7236,1480.00
7237,1440.00
7238,1400.00
7239,1240.00
7240,960.00
7241,560.00
7242,80.00
7243,-400.00
7244,-840.00
7245,-1320.00
7246,-1680.00
7247,-2000.00
7248,-2080.00
7249,-2080.00
7250,-1920.00
7251,-1560.00
7252,-1240.00
7253,-880.00
7254,-280.00
7255,200.00
7256,640.00
7257,1160.00
7258,1560.00
7259,1840.00
7260,2040.00
7261,2080.00
7262,2040.00
7263,1680.00
7264,1480.00
7265,1040.00
7266,640.00
7267,40.00
7268,-360.00
7269,-920.00
7270,-1360.00
7271,-1720.00
7272,-2000.00
7273,-2160.00
7274,-2160.00
7275,-2040.00
7276,-1760.00
7277,-1360.00
7278,-960.00
7279,-480.00
7280,40.00
7281,560.00
7282,1080.00
7283,1480.00
7284,1960.00
7285,2120.00
7286,2240.00
7287,2160.00
7288,1960.00
7289,1600.00
7290,1280.00
7291,800.00
7292,240.00
7293,-320.00
7294,-760.00
7295,-1280.00
7296,-1680.00
7297,-2000.00
7298,-2200.00
7299,-2200.00
7300,-2080.00
7301,-1760.00
7302,-1440.00
7303,-1040.00
7304,-520.00
7305,0.00
7306,520.00
7307,1040.00
7308,1480.00
7309,1800.00
7310,2080.00
7311,2200.00
7312,2160.00
7313,1920.00
7314,1640.00
7315,1240.00
7316,880.00
7317,280.00
7318,-160.00
7319,-720.00
7320,-1240.00
7321,-1600.00
7322,-1920.00
7323,-2120.00
7324,-2120.00
7325,-2000.00
7326,-1720.00
7327,-1360.00
7328,-960.00
7329,-520.00
7330,40.00
7331,560.00
7332,1080.00
7333,1520.00
7334,1920.00
7335,2120.00
7336,2240.00
7337,2120.00
7338,1960.00
7339,1560.00
7340,1240.00
7341,760.00
7342,240.00
7343,-320.00
7344,-760.00
7345,-1320.00
7346,-1720.00
7347,-2040.00
7348,-2200.00
7349,-2200.00
7350,-2040.00
7351,-1760.00
7352,-1400.00
7353,-1000.00
7354,-440.00
7355,40.00
7356,600.00
7357,1080.00
7358,1560.00
7359,1920.00
7360,2160.00
7361,2200.00
7362,2160.00
7363,1920.00
7364,1640.00
7365,1200.00
7366,800.00
7367,160.00
7368,-280.00
7369,-840.00
7370,-1320.00
7371,-1720.00
7372,-2000.00
7373,-2200.00
7374,-2160.00
7375,-2040.00
7376,-1760.00
7377,-1360.00
7378,-960.00
7379,-520.00
7380,80.00
7381,560.00
7382,1080.00
7383,1520.00
7384,1920.00
7385,2120.00
7386,2240.00
7387,2160.00
7388,1960.00
7389,1520.00
7390,1280.00
7391,760.00
7392,240.00
7393,-320.00
7394,-760.00
7395,-1320.00
7396,-1680.00
7397,-2000.00
7398,-2160.00
7399,-2200.00
7400,-2080.00
7401,-1760.00
7402,-1400.00
7403,-1000.00
7404,-440.00
7405,40.00
7406,600.00
7407,1080.00
7408,1560.00
7409,1920.00
7410,2160.00
7411,2200.00
7412,2200.00
7413,1920.00
7414,1640.00
7415,1200.00
7416,800.00
7417,160.00
7418,-280.00
7419,-840.00
7420,-1320.00
7421,-1720.00
7422,-2000.00
7423,-2200.00
7424,-2160.00
7425,-2040.00
7426,-1760.00
7427,-1360.00
7428,-960.00
7429,-520.00
7430,40.00
7431,560.00
7432,1080.00
7433,1520.00
7434,1920.00
7435,2120.00
7436,2240.00
7437,2160.00
7438,1960.00
7439,1520.00
7440,1280.00
7441,760.00
7442,240.00
7443,-320.00
7444,-760.00
7445,-1320.00
7446,-1680.00
7447,-2040.00
7448,-2200.00
7449,-2200.00
7450,-2080.00
7451,-1760.00
7452,-1400.00
7453,-1000.00
7454,-480.00
7455,40.00
7456,600.00
7457,1080.00
7458,1560.00
7459,1920.00
7460,2160.00
7461,2200.00
7462,2200.00
7463,1920.00
7464,1640.00
7465,1200.00
7466,800.00
7467,160.00
7468,-280.00
7469,-840.00
7470,-1320.00
7471,-1720.00
7472,-2000.00
7473,-2200.00
7474,-2160.00
7475,-2080.00
7476,-1760.00
7477,-1360.00
7478,-960.00
7479,-520.00
7480,80.00
7481,560.00
7482,1080.00
7483,1480.00
7484,1920.00
7485,2120.00
7486,2240.00
7487,2120.00
7488,1960.00
7489,1520.00
7490,1240.00
7491,760.00
7492,240.00
7493,-320.00
7494,-760.00
7495,-1320.00
7496,-1680.00
7497,-2000.00
7498,-2200.00
7499,-2200.00
7500,-2080.00
7501,-1760.00
7502,-1400.00
7503,-1000.00
7504,-440.00
7505,40.00
7506,600.00
7507,1080.00
7508,1560.00
7509,1920.00
7510,2160.00
7511,2200.00
7512,2200.00
7513,1920.00
7514,1640.00
7515,1200.00
7516,800.00
7517,160.00
7518,-280.00
7519,-840.00
7520,-1320.00
7521,-1720.00
7522,-2000.00
7523,-2200.00
7524,-2160.00
7525,-2040.00
7526,-1760.00
7527,-1360.00
7528,-960.00
7529,-480.00
7530,40.00
7531,560.00
7532,1080.00
7533,1480.00
7534,1920.00
7535,2120.00
7536,2240.00
7537,2160.00
7538,1960.00
7539,1520.00
7540,1280.00
7541,760.00
7542,240.00
7543,-320.00
7544,-760.00
7545,-1320.00
7546,-1720.00
7547,-2000.00
7548,-2200.00
7549,-2200.00
7550,-2080.00
7551,-1760.00
7552,-1400.00
7553,-1000.00
7554,-400.00
7555,40.00
7556,600.00
7557,1080.00
7558,1560.00
7559,1920.00
7560,2160.00
7561,2200.00
7562,2200.00
7563,1920.00
7564,1640.00
7565,1200.00
7566,800.00
7567,160.00
7568,-240.00
7569,-840.00
7570,-1320.00
7571,-1720.00
7572,-2000.00
7573,-2200.00
7574,-2200.00
7575,-2040.00
7576,-1760.00
7577,-1360.00
7578,-960.00
7579,-520.00
7580,80.00
7581,600.00
7582,1120.00
7583,1520.00
7584,1920.00
7585,2120.00
7586,2240.00
7587,2160.00
7588,1960.00
7589,1520.00
7590,1280.00
7591,800.00
7592,240.00
7593,-320.00
7594,-760.00
7595,-1280.00
7596,-1680.00
7597,-2040.00
7598,-2200.00
7599,-2200.00
7600,-2080.00
7601,-1800.00
7602,-1680.00
7603,-1560.00
7604,-1440.00
7605,-1360.00
7606,-1360.00
7607,-1280.00
7608,-1280.00
7609,-1240.00
7610,-1240.00
7611,-1200.00
7612,-1200.00
7613,-1160.00
7614,-1080.00
7615,-880.00
7616,-480.00
7617,-40.00
7618,360.00
7619,880.00
7620,1320.00
7621,1640.00
7622,1920.00
7623,2000.00
7624,2000.00
7625,1880.00
7626,1640.00
7627,1240.00
7628,960.00
7629,360.00
7630,-40.00
7631,-520.00
7632,-1000.00
7633,-1400.00
7634,-1720.00
7635,-1920.00
7636,-2000.00
7637,-1880.00
7638,-1760.00
7639,-1400.00
7640,-1160.00
7641,-720.00
7642,-200.00
7643,280.00
7644,760.00
7645,1240.00
7646,1640.00
7647,1920.00
7648,2120.00
7649,2080.00
7650,2040.00
7651,1680.00
7652,1480.00
7653,1040.00
7654,640.00
7655,40.00
7656,-360.00
7657,-960.00
7658,-1400.00
7659,-1760.00
7660,-2040.00
7661,-2160.00
7662,-2080.00
7663,-1880.00
7664,-1640.00
7665,-1280.00
7666,-760.00
7667,-320.00
7668,200.00
7669,720.00
7670,1240.00
7671,1640.00
7672,1960.00
7673,2120.00
7674,2160.00
7675,2040.00
7676,1880.00
7677,1640.00
7678,1640.00
7679,1520.00
7680,1560.00
7681,1400.00
7682,1480.00
7683,1400.00
7684,1400.00
7685,1320.00
7686,1320.00
7687,1320.00
7688,1280.00
7689,1080.00
7690,840.00
7691,440.00
7692,0.00
7693,-440.00
7694,-880.00
7695,-1360.00
7696,-1680.00
7697,-1920.00
7698,-2040.00
7699,-2040.00
7700,-1920.00
7701,-1560.00
7702,-1280.00
7703,-880.00
7704,-360.00
7705,160.00
7706,600.00
7707,1080.00
7708,1480.00
7709,1760.00
7710,2000.00
7711,2040.00
7712,2000.00
7713,1760.00
7714,1520.00
7715,1160.00
7716,760.00
7717,200.00
7718,-200.00
7719,-760.00
7720,-1200.00
7721,-1560.00
7722,-1920.00
7723,-2080.00
7724,-2080.00
7725,-2000.00
7726,-1760.00
7727,-1400.00
7728,-1000.00
7729,-560.00
7730,0.00
7731,480.00
7732,1000.00
7733,1440.00
7734,1800.00
7735,2080.00
7736,2200.00
7737,2120.00
7738,1960.00
7739,1600.00
7740,1320.00
7741,840.00
7742,320.00
7743,-200.00
7744,-680.00
7745,-1200.00
7746,-1640.00
7747,-1880.00
7748,-2080.00
7749,-2160.00
7750,-2040.00
7751,-1760.00
7752,-1440.00
7753,-1000.00
7754,-520.00
7755,0.00
7756,520.00
7757,1000.00
7758,1480.00
7759,1800.00
7760,2080.00
7761,2120.00
7762,2160.00
7763,1920.00
7764,1640.00
7765,1240.00
7766,880.00
7767,280.00
7768,-160.00
7769,-760.00
7770,-1240.00
7771,-1600.00
7772,-1960.00
7773,-2120.00
7774,-2120.00
7775,-2000.00
7776,-1720.00
7777,-1320.00
7778,-960.00
7779,-480.00
7780,80.00
7781,560.00
7782,1080.00
7783,1520.00
7784,1920.00
7785,2120.00
7786,2240.00
7787,2120.00
7788,1960.00
7789,1520.00
7790,1240.00
7791,760.00
7792,240.00
7793,-320.00
7794,-760.00
7795,-1320.00
7796,-1720.00
7797,-2000.00
7798,-2200.00
7799,-2200.00
7800,-1680.00
7801,-1560.00
7802,-1440.00
7803,-1360.00
7804,-1360.00
7805,-1280.00
7806,-1320.00
7807,-1280.00
7808,-1240.00
7809,-1200.00
7810,-1240.00
7811,-1200.00
7812,-1080.00
7813,-880.00
7814,-480.00
7815,0.00
7816,360.00
7817,880.00
7818,1320.00
7819,1640.00
7820,1920.00
7821,2040.00
7822,2000.00
7823,1880.00
7824,1640.00
7825,1240.00
7826,920.00
7827,360.00
7828,-40.00
7829,-520.00
7830,-960.00
7831,-1400.00
7832,-1720.00
7833,-1960.00
7834,-2000.00
7835,-1960.00
7836,-1760.00
7837,-1400.00
7838,-1160.00
7839,-760.00
7840,-160.00
7841,280.00
7842,760.00
7843,1240.00
7844,1640.00
7845,1960.00
7846,2120.00
7847,2120.00
7848,2080.00
7849,1800.00
7850,1680.00
7851,1560.00
7852,1560.00
7853,1480.00
7854,1520.00
7855,1440.00
7856,1440.00
7857,1360.00
7858,1360.00
7859,1280.00
7860,1320.00
7861,1200.00
7862,1080.00
7863,800.00
7864,400.00
7865,0.00
7866,-440.00
7867,-920.00
7868,-1360.00
7869,-1720.00
7870,-1960.00
7871,-2040.00
7872,-2000.00
7873,-1840.00
7874,-1600.00
7875,-1160.00
7876,-760.00
7877,-360.00
7878,200.00
7879,640.00
7880,1120.00
7881,1520.00
7882,1840.00
7883,2040.00
7884,2120.00
7885,1960.00
7886,1800.00
7887,1360.00
7888,1120.00
7889,640.00
7890,160.00
7891,-360.00
7892,-800.00
7893,-1320.00
7894,-1720.00
7895,-2040.00
7896,-2120.00
7897,-2160.00
7898,-2040.00
7899,-1760.00
7900,-1440.00
7901,-1000.00
7902,-520.00
7903,0.00
7904,520.00
7905,1040.00
7906,1480.00
7907,1800.00
7908,2120.00
7909,2200.00
7910,2200.00
7911,1960.00
7912,1640.00
7913,1280.00
7914,920.00
7915,320.00
7916,-120.00
7917,-720.00
7918,-1200.00
7919,-1600.00
7920,-1920.00
7921,-2120.00
7922,-2080.00
7923,-2000.00
7924,-1800.00
7925,-1600.00
7926,-1640.00
7927,-1520.00
7928,-1480.00
7929,-1400.00
7930,-1400.00
7931,-1360.00
7932,-1360.00
7933,-1280.00
7934,-1320.00
7935,-1280.00
7936,-1200.00
7937,-1000.00
7938,-760.00
7939,-400.00
7940,40.00
7941,480.00
7942,960.00
7943,1360.00
7944,1720.00
7945,1960.00
7946,2120.00
7947,2080.00
7948,1960.00
7949,1600.00
7950,1320.00
7951,880.00
7952,400.00
7953,-80.00
7954,-520.00
7955,-1000.00
7956,-1440.00
7957,-1760.00
7958,-1960.00
7959,-2000.00
7960,-1960.00
7961,-1760.00
7962,-1480.00
7963,0.00
7964,40.00
7965,40.00
7966,0.00
7967,0.00
7968,0.00
7969,0.00
7970,40.00
7971,0.00
7972,0.00
7973,0.00
7974,40.00
7975,0.00
7976,0.00
7977,0.00
7978,40.00
7979,0.00
7980,0.00
7981,0.00
7982,40.00
7983,0.00
7984,0.00
7985,0.00
7986,0.00
7987,0.00
7988,40.00
7989,0.00
7990,0.00
7991,0.00
7992,0.00
7993,0.00
7994,0.00
7995,40.00
7996,0.00
7997,0.00
7998,0.00
7999,0.00
